Time (s);Linear Acceleration x (m/s^2);Linear Acceleration y (m/s^2);Linear Acceleration z (m/s^2);Absolute acceleration (m/s^2)
0,100548279;-1,328999996;-1,476999998;-0,495999992;2,047873525
0,10558174;-1,328999996;-1,476999998;-0,495999992;2,047873525
0,11061473;-1,328999996;-1,476999998;-0,495999992;2,047873525
0,115648192;-1,328999996;-1,476999998;-0,495999992;2,047873525
0,120681445;-1,328999996;-1,476999998;-0,495999992;2,047873525
0,125714753;-1,328999996;-1,476999998;-0,495999992;2,047873525
0,130747973;-1,328999996;-1,476999998;-0,495999992;2,047873525
0,135781204;-1,328999996;-1,476999998;-0,495999992;2,047873525
0,140814703;-1,328999996;-1,476999998;-0,495999992;2,047873525
0,145848011;-1,328999996;-1,476999998;-0,495999992;2,047873525
0,150881242;-0,083999999;-0,096000001;0,197999999;0,235533436
0,155914414;0,025;-0,462000012;0,078000002;0,469204659
0,160947721;-0,090000004;-0,716000021;-0,187999994;0,745721146
0,165980936;-0,149000004;-0,949999988;-0,137999997;0,971465376
0,171014398;-0,152999997;-1,125;-0,370999992;1,19443501
0,176047599;-0,326999992;-1,48300004;-0,360000014;1,560710775
0,18108083;-0,495999992;-1,677000046;-0,416999996;1,797841523
0,186114138;-0,676999986;-1,922000051;-0,463;2,089684707
0,191147368;-0,690999985;-2,095000029;-0,469999999;2,255527898
0,196180829;-0,745999992;-2,22300005;-0,257999986;2,358984782
0,201214063;-0,508000016;-1,99000001;-0,672999978;2,16127116
0,206247294;-0,653999984;-2,092999935;-0,136999995;2,197073896
0,211280534;-1,011999965;-2,187999964;0,694000006;2,508609929
0,216313764;-1,018000007;-2,068000078;0,816999972;2,445493261
0,221347061;-1,029000044;-1,388000011;0,58099997;1,822894974
0,226380292;-0,930999994;-1,092000008;0,911000013;1,699748814
0,231413532;-0,967999995;-1,20599997;1,330000043;2,039696064
0,236446993;-0,836000025;-1,143000007;1,725000024;2,231808715
0,24148031;-0,423000008;-1,021000028;1,769999981;2,086688763
0,246513541;-0,086000003;-0,904999971;1,950000048;2,151492769
0,25154677;0,312999994;-0,845000029;2,369999886;2,535526277
0,256580001;0,547999978;-0,824999988;2,660000086;2,838402616
0,261613457;0,875999987;-0,796999991;2,58100009;2,839744078
0,266646457;1,243000031;-0,89200002;2,582999945;3,002099569
0,271679688;0,968999982;-2,694999933;2,614000082;3,877496877
0,27671312;1,307000041;-2,170000076;1,81099999;3,113979833
0,281746428;0,75999999;-2,217000008;2,792999983;3,646030434
0,286779659;0,508000016;-3,062000036;2,312000036;3,870303916
0,291812918;0,856999993;-2,438999891;1,508999944;2,993367717
0,29684638;0,984000027;-1,972000003;1,281000018;2,549117712
0,30187964;0,141000003;-0,708000004;0,79400003;1,073117446
0,306912794;-0,104999997;-0,518000007;0,97299999;1,107284059
0,311946024;-0,006;-0,136999995;0,624000013;0,638890456
0,316979341;0,032000002;0,083999999;0,342999995;0,354582848
0,322012572;0,140000001;0,232999995;0,444999993;0,521453729
0,327045803;0,057;0,523999989;0,537;0,752458629
0,332079259;0,074000001;0,656000018;0,598999977;0,891410678
0,33711249;-0,017000001;0,851999998;0,324999988;0,912040563
0,342145692;-0,052000001;0,799000025;0,391000003;0,891058944
0,347178999;-0,239999995;0,745999992;0,43599999;0,896778666
0,35221223;-0,268000007;0,805000007;0,36500001;0,923620064
0,357245702;-0,250999987;0,790000021;0,268000007;0,871163034
0,362278702;-0,204999998;0,610000014;0,046999998;0,645239503
0,367312163;-0,130999997;0,39199999;0,008;0,413387217
0,372345394;-0,075999998;0,280999988;-0,254000008;0,386332754
0,377378702;0,035999998;0,140000001;-0,518000007;0,537791788
0,382411933;0,128999993;-0,093999997;-0,518000007;0,542034136
0,387445173;0,230000004;-0,128000006;-0,666000009;0,716128491
0,392478635;0,158999994;-0,286000013;-0,725000024;0,795425698
0,397511866;0,128000006;-0,532000005;-0,833999991;0,997478818
0,402545129;0,145999998;-0,638000011;-0,768999994;1,009812361
0,407578437;0,177000001;-0,54400003;-0,676999986;0,886337415
0,412611909;0,090000004;-0,349999994;-0,481000006;0,601631949
0,417644909;0,037;-0,066;-0,115000002;0,137659001
0,422678111;-0,057999998;0,125;0,039000001;0,143213127
0,427711572;-0,090999998;0,259000003;0,209000006;0,345026092
0,432744904;-0,050999999;0,36500001;0,131999999;0,391471591
0,437778135;0,059999999;0,606000006;0,254999995;0,660197701
0,442811351;0,096000001;0,754999995;0,330000013;0,829542646
0,447844813;0,104999997;0,920000017;0,485000014;1,045299021
0,452878044;0,291999996;0,745999992;0,270999998;0,845707387
0,457911044;0,365999997;0,458000004;0,246999994;0,636183149
0,462944529;0,402999997;0,266000003;-0,179000005;0,514981554
0,467977837;0,248999998;-0,172999993;-0,658999979;0,725404004
0,473011005;0,272000015;-0,221000001;-0,377000004;0,514736837
0,478044312;0,330000013;-0,032000002;-0,164000005;0,36989189
0,483077731;0,324000001;0,071000002;-0,203999996;0,389400821
0,488110962;0,284999996;0,122000001;-0,354999989;0,471310928
0,493144236;0,250999987;-0,063000001;-0,407999992;0,483150067
0,498177543;0,094999999;-0,104000002;-0,508000016;0,527166972
0,503210779;0,055;-0,358999997;-0,546000004;0,655760629
0,508244241;0,075000003;-0,699999988;-0,426999986;0,823379604
0,513277456;0,122000001;-0,720000029;-0,101000004;0,73721438
0,518310456;0,143000007;-0,688000023;0,428000003;0,822786143
0,523343918;0,233999997;-0,783999979;0,898000002;1,214831663
0,52837726;0,321999997;-1,07099998;1,383999944;1,77937652
0,53341049;0,370000005;-1,325000048;1,539000034;2,06423018
0,538443721;0,393999994;-1,48300004;1,720999956;2,305724607
0,543477188;0,160999998;-1,753000021;1,809000015;2,524165432
0,548510419;0,004;-1,74000001;1,575999975;2,347635397
0,553543673;-0,119000003;-1,754999995;1,337000012;2,209469397
0,558576981;-0,273999989;-1,50999999;0,934000015;1,796533327
0,563610212;-0,324000001;-1,241000056;0,508000016;1,379536573
0,568643443;-0,388999999;-0,980000019;0,179000005;1,06946811
0,573676673;-0,573000014;-0,651000023;-0,338;0,93079216
0,578710135;-0,55400002;-0,219999999;-0,739000022;0,94944039
0,583743337;-0,63499999;0,088;-0,963;1,156865587
0,588776568;-0,771000028;0,442999989;-1,024999976;1,35695062
0,593809889;-0,880999982;0,797999978;-0,947000027;1,51979406
0,598843351;-0,904999971;0,916999996;-0,805000007;1,519190229
0,603876626;-0,79400003;1,046000004;-0,515999973;1,410959966
0,608909856;-0,54400003;1,001000047;-0,414000005;1,212160521
0,61394312;-0,282999992;0,911000013;-0,215000004;0,977872702
0,618976351;0,004;0,851000011;-0,128999993;0,860731094
0,624009582;0,340000004;0,913999975;0,057999998;0,976913484
0,629042822;0,623000026;0,861000001;0,07;1,0650587
0,634076053;0,890999973;0,930999994;0,196999997;1,303629909
0,639109515;1,072000027;1,034999967;0,263000011;1,513135154
0,644142745;1,243000031;1,11500001;0,152999997;1,676807412
0,649176053;1,319000006;1,136000037;0,129999995;1,74561081
0,654209274;1,299000025;1,029999971;0,041999999;1,658331995
0,659242736;1,248999953;1,055999994;-0,050000001;1,63634864
0,664275966;1,238000035;1,07099998;-0,284999996;1,661598641
0,669309197;1,031000018;0,987999976;-0,391000003;1,480535711
0,674342438;1,019000053;0,898000002;-0,509000003;1,450464104
0,679375669;0,947000027;0,760999978;-0,515999973;1,319918933
0,684408976;0,723999977;0,677999973;-0,749000013;1,242924354
0,689442197;0,589999974;0,527999997;-0,647000015;1,022493514
0,694475428;0,405999988;0,458000004;-0,588;0,848730814
0,69950887;0,351000011;0,377999991;-0,512000024;0,726793661
0,704542178;0,291000009;0,324000001;-0,294;0,52544553
0,709575428;0,196999997;0,241999999;-0,234999999;0,390637937
0,714608659;0,170000002;0,085000001;-0,074000001;0,203963234
0,71964212;0,143000007;-0,064000003;0,112000003;0,192585054
0,724675096;0,201000005;-0,372000009;0,088;0,431890042
0,729708327;0,163000003;-0,521000028;0,090000004;0,553272112
0,734741814;-0,006;-0,787;0,030999999;0,787633164
0,739775044;-0,165999994;-0,907999992;-0,218999997;0,948673275
0,744808338;-0,177000001;-1,11500001;-0,163000003;1,140667797
0,749841569;-0,31400001;-1,136000037;0,004;1,178604298
0,754874799;-0,386999995;-1,057999969;-0,066;1,128489667
0,75990826;-0,479000002;-1,042999983;0,008;1,147760413
0,764941487;-0,526000023;-1,090999961;-0,016000001;1,211285655
0,769974795;-0,479999989;-0,984000027;0,085000001;1,098126151
0,775008005;-0,453000009;-0,883000016;0,067000002;0,994679364
0,780041236;-0,416000009;-0,99000001;0,115000002;1,079991216
0,785074467;-0,402999997;-0,845000029;0,123999998;0,944356948
0,790107877;-0,221000001;-0,745999992;0,097000003;0,784070143
0,795141107;-0,172999993;-0,601000011;0,092;0,632134488
0,800174439;-0,247999996;-0,463999987;0,259000003;0,586413666
0,80520767;-0,192000002;-0,381999999;0,361999989;0,560207097
0,81024091;-0,149000004;-0,279000014;0,404000014;0,513086757
0,815274371;-0,123000003;-0,177000001;0,275999993;0,350191373
0,820307583;-0,045000002;-0,105999999;0,317000002;0,33726844
0,825340814;-0,035999998;-0,090000004;0,298000008;0,313368801
0,83037413;-0,039999999;-0,150999993;0,137999997;0,208434635
0,835407361;-0,107000001;-0,108999997;0,108000003;0,187066834
0,840440612;-0,074000001;-0,141000003;-0,023;0,16089127
0,845473843;0,01;-0,263999999;-0,192000002;0,326588426
0,850507308;-0,066;-0,333000004;-0,361999989;0,49627512
0,855540539;-0,158999994;-0,280000001;-0,596000016;0,677419381
0,86057377;-0,119999997;-0,237000003;-0,698000014;0,746842032
0,865607059;-0,159999996;-0,164000005;-0,746999979;0,781348174
0,87064052;-0,145999998;-0,145999998;-0,893999994;0,917533644
0,875673525;-0,246000007;-0,112000003;-1,100000024;1,132722409
0,880706756;-0,229000002;0,006;-1,088999987;1,112833308
0,88574017;-0,289000005;0,094999999;-1,146999955;1,186657027
0,890773477;-0,231999993;0,216999993;-1,118000031;1,162255162
0,895806713;-0,158000007;0,264999986;-0,91900003;0,969407061
0,900839944;-0,059999999;0,43599999;-0,888999999;0,991976304
0,905873375;-0,046999998;0,537999988;-0,774999976;0,944604653
0,910906606;-0,028000001;0,653999984;-0,423999995;0,779920493
0,915939846;0,033;0,620999992;-0,330000013;0,704009942
0,920973154;0,201000005;0,558000028;-0,337000012;0,682153972
0,926006389;0,172999993;0,628000021;-0,203999996;0,682589937
0,931039851;0,234999999;0,598999977;-0,423999995;0,770585471
0,936072861;0,347000003;0,500999987;-0,393999994;0,725703785
0,941106323;-0,104999997;-0,797999978;-0,734000027;1,089304826
0,946139553;0,381999999;-0,503000021;-1,875;1,978524203
0,951172861;0,317000002;-0,238000005;-2,131999969;2,168537958
0,956206092;0,059999999;0,136999995;-1,985000014;1,990626548
0,961239572;-0,072999999;0,462000012;-1,605999947;1,672724974
0,966272803;-0,377999991;0,717999995;-1,24000001;1,481893387
0,971306024;-0,407999992;0,873000026;-0,907999992;1,324030598
0,976339332;-0,504000008;0,75999999;-0,693000019;1,145366762
0,981372528;-0,340000004;0,768999994;-0,504000008;0,980294344
0,986405759;-0,203999996;0,708999991;-0,531000018;0,908987352
0,991438995;0,063000001;0,527999997;-0,370999992;0,648377969
0,996472456;0,171000004;0,5;-0,419;0,674390096
1,001505654;0,234999999;0,546000004;-0,208000004;0,629765834
1,006538885;0,381000012;0,533999979;-0,071999997;0,659924986
1,011572188;0,330000013;0,652999997;0,118000001;0,74110256
1,016605419;0,239999995;0,448000014;0,444999993;0,675521283
1,02163888;0,248999998;0,481000006;0,470999986;0,717776422
1,026672111;0,226999998;0,481999993;0,575999975;0,784620267
1,031705342;0,175999999;0,499000013;0,629000008;0,821959867
1,036738596;0,071000002;0,497000009;0,615999997;0,794673521
1,041771827;0,214000002;0,588999987;0,573000014;0,849144276
1,046805149;0,180000007;0,714999974;0,432999998;0,855052024
1,05183838;0,114;0,626999974;0,391000003;0,747667018
1,056871644;0,177000001;0,690999985;0,225999996;0,748255289
1,061905106;0,209999993;0,625;0,115999997;0,669463215
1,066938404;0,171000004;0,656000018;0,149000004;0,694102317
1,071971635;0,245000005;0,601000011;-0,039999999;0,650250733
1,077004865;0,185000002;0,50999999;-0,231000006;0,589649043
1,082038342;0,104999997;0,495000005;-0,356000006;0,618697025
1,087071342;0,046999998;0,442000002;-0,395999998;0,595305803
1,092104808;0,079000004;0,400000006;-0,402999997;0,573280039
1,097138039;-0,026000001;0,433999985;-0,409000009;0,596919588
1,102171362;-0,116999999;0,453999996;-0,356000006;0,588677332
1,107204593;-0,143999994;0,307000011;-0,256999999;0,42548091
1,112238059;-0,166999996;0,416999996;-0,199000001;0,491303364
1,11727129;-0,174999997;0,412;-0,048999999;0,450299899
1,12230452;-0,100000001;0,393999994;-0,067000002;0,411976936
1,127337827;-0,101999998;0,338999987;0,032000002;0,355456032
1,132371078;-0,048999999;0,374000013;0,158000007;0,408951112
1,13740454;0,011;0,27700001;0,246999994;0,371293688
1,142437559;0,090999998;0,319999993;0,291000009;0,441997738
1,14747079;0,150000006;0,200000003;0,300999999;0,391281232
1,152504251;0,300999999;0,26699999;0,391000003;0,561044558
1,157537559;0,284000009;0,25;0,273000002;0,466567258
1,162570795;0,370999992;0,206;0,308999985;0,524936172
1,167604025;0,388000011;0,261000007;0,280000001;0,545036708
1,172637516;0,326000005;0,143000007;0,264999986;0,443790488
1,177670747;0,421000004;0,244000003;0,331999987;0,589067905
1,182703997;0,432000011;0,231000006;0,340000004;0,596309496
1,187737227;0,377999991;0,218999997;0,310000002;0,535672468
1,192770543;0,328000009;0,186000004;0,342000008;0,509061895
1,197803697;0,340000004;0,277999997;0,219999999;0,491206678
1,202836963;0,307000011;0,326000005;0,31099999;0,545202718
1,207870424;0,169;0,079000004;0,294999987;0,349037237
1,212903674;0,082999997;0,241999999;0,248999998;0,357007
1,217936905;0,112000003;0,180999994;0,379000008;0,434679198
1,222970217;0,052999999;0,082999997;0,395000011;0,407090909
1,228003448;-0,025;0,127000004;0,563000023;0,577687656
1,233036905;-0,092;0,07;0,592999995;0,604163052
1,238069905;-0,237000003;0,079000004;0,712000012;0,754555511
1,243103356;-0,128000006;0,037;0,73299998;0,745011391
1,248136587;-0,189999998;-0,061000001;0,808000028;0,832277024
1,253169895;-0,144999996;-0,108999997;0,879000008;0,897522709
1,25820315;-0,127000004;0,004;0,808000028;0,817929732
1,26323638;-0,093999997;-0,116999999;0,773000002;0,787435078
1,268269847;-0,071999997;-0,147;0,851000011;0,86659911
1,273303078;-0,046999998;-0,194999993;0,66900003;0,69842325
1,278336332;-0,109999999;-0,194999993;0,693000019;0,728267824
1,283369563;-0,134000003;-0,147;0,887000024;0,909029177
1,288403025;-0,187000006;-0,052000001;0,893999994;0,914827301
1,293436015;-0,193000004;0,089000002;1,024000049;1,045823169
1,298469476;-0,230000004;0,158999994;1,300999999;1,33070733
1,303502707;-0,280999988;0,134000003;1,44599998;1,479132495
1,308536001;-0,324999988;0,142000005;1,524999976;1,56569918
1,313569232;-0,319000006;-0,046999998;1,541000009;1,574373218
1,318602462;-0,263000011;-0,151999995;1,593999982;1,62268572
1,323635919;-0,312999994;-0,178000003;1,393000007;1,438784909
1,32866915;-0,228;-0,256000012;1,373999953;1,416120008
1,333702399;-0,214000002;-0,305000007;1,110000014;1,170863372
1,338735707;-0,273000002;-0,230000004;0,959999979;1,024221149
1,343768947;-0,196999997;-0,150000006;0,745999992;0,78601844
1,348802408;-0,233999997;-0,057;0,451999992;0,512161099
1,353835375;-0,223000005;0,174999997;0,532999992;0,60369114
1,358868837;-0,272000015;0,219999999;0,566999972;0,666237927
1,363902068;-0,266000003;0,310000002;0,653999984;0,771084938
1,368935347;-0,141000003;0,521000028;1,075999975;1,203784855
1,373968577;-0,092;0,625999987;1,286999941;1,434123018
1,379001808;-0,079999998;0,721000016;1,628000021;1,782308921
1,38403526;0,046;0,763000011;2,203000069;2,331843545
1,38906849;0,114;0,663999975;2,440000057;2,53130248
1,39410176;0,108999997;0,605000019;2,690000057;2,759348896
1,399134991;0,250999987;0,395000011;3,095000029;3,130183889
1,40416826;0,208000004;0,248999998;3,253000021;3,269139663
1,40920149;0,25;0,078000002;3,34800005;3,358226963
1,414234726;0,243000001;-0,206;3,240999937;3,256618736
1,419268188;0,25;-0,81400001;2,519000053;2,659033149
1,424301438;-0,082999997;-0,851000011;2,476999998;2,620423441
1,429334745;-0,241999999;-0,588;2,579999924;2,657199203
1,434367987;-0,423000008;-0,556999981;2,500999928;2,596955645
1,439401449;-0,546000004;-0,593999982;2,035000086;2,18910423
1,444434655;-0,654999971;-0,657999992;1,633000016;1,878477577
1,449467886;-0,75;-0,713999987;1,350999951;1,702203528
1,454501098;-0,751999974;-0,825999975;1,062000036;1,541305939
1,459534329;-0,827000022;-0,861999989;0,745999992;1,408363946
1,464567669;-0,867999971;-0,89200002;0,485000014;1,335781793
1,469601131;-0,776000023;-0,815999985;0,312000006;1,168493053
1,474634367;-0,902999997;-0,728999972;0,149000004;1,170064509
1,479667598;-0,92900002;-0,670000017;0,007;1,145421346
1,484700804;-0,97299999;-0,560000002;-0,057999998;1,124140998
1,489734112;-0,941999972;-0,43900001;-0,108000003;1,044867914
1,494767328;-1,001999974;-0,340000004;-0,182999998;1,073821657
1,499800789;-0,99000001;-0,240999997;-0,143999994;1,029036936
1,504833789;-0,940999985;-0,104999997;-0,324000001;1,000740711
1,509867242;-0,93900001;-0,041000001;-0,465999991;1,049074836
1,514900473;-0,911000013;0,131999999;-0,537;1,065698843
1,519933765;-0,822000027;0,203999996;-0,573000014;1,022560051
1,524966996;-0,73299998;0,44600001;-0,65200001;1,077640475
1,530000454;-0,680000007;0,465999991;-0,82099998;1,163441863
1,535033685;-0,672999978;0,58099997;-0,879999995;1,250955606
1,540066977;-0,549000025;0,685000002;-0,885999978;1,247245762
1,545100131;-0,444999993;0,661000013;-0,93599999;1,22924448
1,550133348;-0,456;0,600000024;-0,903999984;1,176924807
1,555166656;-0,404000014;0,586000025;-0,875999987;1,128710777
1,560199886;-0,342999995;0,486000001;-0,783999979;0,984124467
1,565233117;-0,379999995;0,333999991;-0,703000009;0,866120663
1,570266569;-0,474000007;0,181999996;-0,456999987;0,683117116
1,575299799;-0,529999971;0,02;-0,300000012;0,60934389
1,580333073;-0,566999972;-0,142000005;-0,097999997;0,592669359
1,585366304;-0,663999975;-0,330000013;0,057999998;0,743747252
1,590399752;-0,654999971;-0,527999997;0,107000001;0,848090773
1,595432982;-0,736000001;-0,612999976;0,230000004;0,98507105
1,600466198;-0,889999986;-0,819999993;0,231999993;1,232202889
1,605499429;-0,913999975;-0,904999971;0,280999988;1,31657962
1,610532728;-1,116999984;-1,057999969;0,360000014;1,580080032
1,615565958;-1,156999946;-1,067000031;0,384000003;1,620059858
1,620599429;-1,345999956;-1,269999981;0,158999994;1,85738979
1,62563266;-1,396999955;-1,235000014;0,093000002;1,866944806
1,63066589;-1,514999986;-1,246000051;0,056000002;1,962365176
1,635699198;-1,616000056;-1,31099999;-0,261000007;2,097211996
1,640732429;-1,656000018;-1,23300004;-0,578999996;2,144263546
1,645765895;-1,690999985;-1,164999962;-0,791000009;2,200542404
1,650799126;-1,692000031;-1,161000013;-0,943000019;2,258325524
1,655832404;-1,779999971;-1,110000014;-1,090000033;2,364021997
1,660865635;-1,672999978;-1,026000023;-1,18599999;2,293076743
1,665898866;-1,700000048;-1,019999981;-1,281999946;2,360915921
1,670932159;-1,748999953;-1,023000002;-1,373000026;2,447582258
1,67596539;-1,748000026;-0,984000027;-1,381999969;2,435915446
1,680998851;-1,725999951;-0,876999974;-1,282999992;2,322561897
1,686032081;-1,562999964;-0,871999979;-1,157999992;2,13174033
1,691065389;-1,583999991;-0,83099997;-1,046000004;2,07213246
1,69609862;-1,57099998;-0,873000026;-0,875999987;1,999386396
1,701131885;-1,523000002;-0,800999999;-0,699000001;1,85734515
1,706165346;-1,399000049;-0,810000002;-0,460999995;1,681018184
1,711198346;-1,370000005;-0,685000002;-0,328000009;1,56643194
1,716231808;-1,358999968;-0,731000006;-0,223000005;1,559157119
1,721265073;-1,31099999;-0,722000003;-0,025;1,4968734
1,72629838;-1,210000038;-0,73299998;0,052999999;1,415697024
1,731331611;-1,179999948;-0,683000028;0,056000002;1,364560338
1,736364842;-1,245000005;-0,691999972;0,045000002;1,42510139
1,741398317;-1,161000013;-0,583999991;0,211999997;1,316784348
1,746431548;-1,121999979;-0,550000012;0,252999991;1,274909001
1,751464904;-1,167999983;-0,561999977;0,228;1,316074441
1,756498058;-1,072000027;-0,51700002;0,125;1,196703003
1,761531379;-0,957000017;-0,556999981;0,052999999;1,108560784
1,76656461;-0,977999985;-0,441000015;0,064999998;1,074797648
1,771597846;-0,991999984;-0,328999996;-0,046;1,046145767
1,776631308;-0,953999996;-0,307999998;-0,133000001;1,011270979
1,781664543;-0,80400002;-0,182999998;-0,059;0,826671659
1,786697851;-0,852999985;-0,156000003;-0,145999998;0,879352589
1,791731077;-0,823000014;-0,078000002;-0,270999998;0,869973575
1,796764538;-0,825999975;0,001;-0,097999997;0,83179382
1,801797779;-0,838;-0,009;-0,136000007;0,849011779
1,806831087;-0,846000016;0,07;-0,090999998;0,853754664
1,811864255;-0,764999986;0,079000004;-0,208000004;0,796699429
1,816897486;-0,745999992;0,005;-0,211999997;0,775554632
1,821930817;-0,739000022;0,090999998;-0,277999997;0,794786783
1,826964279;-0,675999999;0,035;-0,310000002;0,744513936
1,831997525;-0,583999991;0,052999999;-0,319999993;0,668030677
1,837030755;-0,575999975;-0,007;-0,414000005;0,709380698
1,842064101;-0,578999996;-0,067000002;-0,354999989;0,682462445
1,847097332;-0,593999982;-0,111000001;-0,379999995;0,713832596
1,852130788;-0,444999993;-0,140000001;-0,462000012;0,656558455
1,857164019;-0,374000013;-0,128000006;-0,36500001;0,53803812
1,862197255;-0,384000003;-0,046999998;-0,324999988;0,505262303
1,867230486;-0,216000006;-0,061000001;-0,279000014;0,358075426
1,872263812;-0,088;0,023;-0,277999997;0,292501279
1,877297043;-0,025;0,030999999;-0,130999997;0,136919682
1,882330269;0,021;0,093999997;-0,135000005;0,165837272
1,887363731;0,172000006;0,209999993;0,074000001;0,281353869
1,892396962;0,273000002;0,256999999;0,238999993;0,444633554
1,897430193;0,344999999;0,40200001;0,384000003;0,654282057
1,902463501;0,453000009;0,479999989;0,700999975;0,962813566
1,907496717;0,43900001;0,486000001;0,615999997;0,89909566
1,912529947;0,44600001;0,423999995;0,90200001;1,091923085
1,917563409;0,305999994;0,388000011;0,941999972;1,063740547
1,922596621;0,289999992;0,26699999;0,941999972;1,021152749
1,927629851;0,177000001;0,177000001;0,879999995;0,914908734
1,932663063;0,133000001;0,114;0,771000028;0,790649128
1,937696371;0,007;0,116999999;0,683000028;0,692984154
1,942729853;-0,050000001;-0,046;0,513000011;0,51747948
1,947763083;-0,059;-0,098999999;0,432000011;0,447108499
1,952796295;-0,048999999;-0,266000003;0,300999999;0,404670237
1,957829603;-0,134000003;-0,25;0,188999996;0,340847472
1,962862757;-0,028000001;-0,384000003;0,150000006;0,413206975
1,967896078;-0,057999998;-0,400999993;0,207000002;0,454987907
1,972929309;-0,006;-0,531000018;0,169;0,557277327
1,977962771;-0,018999999;-0,625;0,236000001;0,668342727
1,982995991;-0,035999998;-0,657999992;0,275000006;0,714062317
1,988029222;-0,003;-0,662999988;0,485000014;0,821463936
1,993062525;0,041999999;-0,670000017;0,601000011;0,901035535
1,998095756;0,128000006;-0,651000023;0,851999998;1,079856022
2,003128963;0,119999997;-0,550000012;1,097000003;1,233008118
2,008162424;0,123999998;-0,428000003;1,381999969;1,452061954
2,013195732;0,075000003;-0,363000005;1,562999964;1,6063508
2,018228877;0,178000003;-0,384000003;1,758999944;1,809204468
2,023262107;0,056000002;-0,296000004;1,907999992;1,931635569
2,028295371;0,178000003;-0,275999993;2,049999952;2,076140603
2,033328833;0,098999999;-0,246999994;1,998999953;2,016633534
2,038362063;0,083999999;-0,187000006;2,020999908;2,031370383
2,043395314;-0,028999999;-0,201000005;2,089999914;2,099843243
2,048428622;-0,057;-0,093999997;2,032000065;2,034971563
2,053462078;0,008;-0,082000002;1,705000043;1,706989498
2,058495078;-0,021;0,041999999;1,504999995;1,505732375
2,063528501;0,003;-0,017999999;1,360999942;1,361122273
2,068561732;0,033;0,093999997;1,231999993;1,236021433
2,073594934;0,143000007;0,077;1,08099997;1,093132626
2,078628164;0,270999998;0,027000001;1,057999969;1,092489786
2,083661439;0,340999991;0,024;1,131000042;1,181532094
2,08869467;0,379000008;0,056000002;1,251999974;1,309305519
2,09372815;0,522000015;-0,041000001;1,478999972;1,568950584
2,098761381;0,611999989;-0,201000005;1,753999949;1,868545104
2,103794674;0,693000019;-0,296000004;2,003999949;2,140999958
2,108827905;0,693000019;-0,504000008;2,352999926;2,504171257
2,113861135;0,708000004;-0,666000009;2,555999994;2,734585158
2,118894366;0,617999971;-0,785000026;2,703999996;2,882666298
2,123927597;0,584999979;-0,907000005;2,884000063;3,079339271
2,128961059;0,499000013;-1,087000012;2,891000032;3,128650065
2,133994328;0,388000011;-1,184000015;2,753999949;3,022733161
2,139027559;0,319999993;-1,30400002;2,733999968;3,04591068
2,144060848;0,136999995;-1,457999945;2,401000023;2,812353809
2,149094079;0,126000002;-1,514999986;2,059000015;2,559410483
2,154127544;-0,021;-1,472000003;1,710000038;2,256396494
2,159160775;-0,052000001;-1,555999994;1,325999975;2,045022229
2,164194064;-0,130999997;-1,524000049;1,059000015;1,860434944
2,169227294;-0,182999998;-1,491999984;0,672999978;1,646961421
2,174260477;-0,218999997;-1,39199996;0,287;1,438052116
2,179293708;-0,216999993;-1,292999983;-0,061000001;1,31250103
2,18432717;-0,092;-1,324000001;-0,268999994;1,354179087
2,189360414;-0,041000001;-1,281000018;-0,488999993;1,371773684
2,194393722;0,028999999;-1,289000034;-0,856000006;1,547610448
2,199426977;0,075999998;-1,172999978;-1,047999978;1,574804401
2,204460438;0,374000013;-1,164000034;-0,996999979;1,577587097
2,20949366;0,513000011;-1,17900002;-1,014000058;1,637499978
2,214526891;0,648999989;-1,080000043;-0,921999991;1,561308766
2,219560208;0,782000005;-1,190000057;-0,586000025;1,539811733
2,224593438;1,082000017;-1,07099998;-0,404000014;1,575113014
2,229626722;1,088000059;-1,174999952;-0,158000007;1,60914046
2,234659953;1,223999977;-1,166000009;0,108000003;1,69392915
2,239693425;1,256999969;-1,212000012;0,529999971;1,82479942
2,244726655;1,171000004;-1,345999956;0,728999972;1,927277315
2,249759915;1,207000017;-1,396999955;1,154999971;2,177724236
2,254793223;1,07099998;-1,506000042;1,294999957;2,256568628
2,259826439;0,985000014;-1,550999999;1,292000055;2,246127817
2,2648599;0,875;-1,722000003;1,315000057;2,336692997
2,2698929;0,75999999;-1,773000002;1,230999947;2,288337794
2,274926362;0,671000004;-1,871999979;1,157999992;2,301214659
2,279959717;0,602999985;-1,924000025;0,947000027;2,227598287
2,284992871;0,430999994;-1,835000038;0,707000017;2,013165458
2,290026149;0,312000006;-1,914000034;0,435000002;1,987451921
2,295059611;0,079000004;-1,856999993;0,097999997;1,861261394
2,300092611;0,032000002;-1,840999961;-0,326999992;1,870089263
2,305126039;-0,090999998;-1,707000017;-0,73299998;1,859951351
2,310159347;-0,186000004;-1,631000042;-0,920000017;1,881796261
2,315192592;-0,187999994;-1,491999984;-1,164000034;1,901658231
2,320225822;-0,333000004;-1,407999992;-1,463000059;2,057601068
2,325259053;-0,243000001;-1,292999983;-1,626999974;2,092373502
2,330292525;-0,266000003;-1,088000059;-1,68900001;2,026628028
2,335325755;-0,177000001;-1,011999965;-1,896999955;2,157332093
2,340359005;-0,082999997;-0,887000024;-1,850999951;2,054229506
2,345392313;0,02;-0,587000012;-1,89199996;1,981068616
2,350425798;0,111000001;-0,5;-1,827999949;1,898395326
2,355459029;0,263000011;-0,330000013;-1,80400002;1,852696707
2,360492255;0,444000006;-0,194000006;-1,88499999;1,946277722
2,365525486;0,527999997;-0,111000001;-1,83099997;1,908838885
2,370558765;0,713999987;-0,028999999;-1,626999974;1,777010382
2,375591995;0,828999996;0,097000003;-1,578999996;1,786026591
2,380625236;0,852999985;0,030999999;-1,570000052;1,787028298
2,385658467;0,901000023;0,140000001;-1,432000041;1,697652838
2,390691904;0,926999986;0,094999999;-1,302999973;1,60192475
2,395725135;0,869000018;0,156000003;-1,133000016;1,4363795
2,400758409;0,926999986;0,109999999;-1,072999954;1,422236927
2,40579164;0,899999976;0,075999998;-1,123999953;1,441926438
2,410825091;0,888999999;0,067000002;-1,036999941;1,367544835
2,415858322;0,930000007;0,011;-0,957000017;1,33449243
2,420891568;0,889999986;-0,017999999;-0,816999972;1,208268566
2,425924876;0,819000006;0,021;-0,883000016;1,204529384
2,43095813;0,80400002;-0,012;-0,856000006;1,17443435
2,435991361;0,773000002;-0,039999999;-0,838999987;1,141512146
2,441024611;0,698000014;-0,048;-0,774999976;1,044094336
2,446058072;0,68900001;-0,077;-0,786000013;1,048067763
2,451091264;0,586000025;-0,098999999;-0,537999988;0,801648936
2,456124572;0,446999997;-0,236000001;-0,501999974;0,71239664
2,461157808;0,367000014;-0,172999993;-0,30399999;0,506985208
2,466191269;0,360000014;-0,307999998;-0,268999994;0,544816488
2,471224519;0,284999996;-0,314999998;-0,143999994;0,448537618
2,476257519;0,330000013;-0,356999993;0,008;0,486223204
2,481290967;0,240999997;-0,456999987;0,206;0,556206784
2,486324274;0,197999999;-0,569000006;0,245000005;0,65037682
2,491357481;0,229000002;-0,592000008;0,319999993;0,710848089
2,496390712;0,202000007;-0,595000029;0,472000003;0,785883604
2,501424173;0,177000001;-0,688000023;0,458999991;0,84578604
2,506457404;0,192000002;-0,550999999;0,606000006;0,84124967
2,511490659;0,104000002;-0,65200001;0,626999974;0,910521269
2,516523967;0,064999998;-0,598999977;0,623000026;0,866691989
2,521557428;0,199000001;-0,55400002;0,769999981;0,969235262
2,526590659;0,159999996;-0,458000004;0,84799999;0,976968774
2,531623895;0,097000003;-0,512000024;0,901000023;1,04084296
2,536657126;0,155000001;-0,414999992;0,851999998;0,960288493
2,541690332;0,218999997;-0,375;0,842000008;0,947391161
2,546723563;0,211999997;-0,250999987;0,745000005;0,814229697
2,551756885;0,300999999;-0,284999996;0,73299998;0,842089644
2,556790346;0,372999996;-0,228;0,781000018;0,895027388
2,561823582;0,43599999;-0,272000015;0,674000025;0,847558867
2,566856813;0,541000009;-0,135000005;0,560000002;0,790256929
2,57189013;0,625;-0,129999995;0,509000003;0,816459431
2,57692336;0,640999973;-0,165999994;0,578999996;0,879589654
2,581956817;0,658999979;-0,077;0,518999994;0,842360354
2,586990048;0,713;-0,033;0,703999996;1,002533787
2,592023053;0,67900002;-0,046;0,630999982;0,928072198
2,597056514;0,583999991;-0,027000001;0,66900003;0,888451478
2,602089745;0,629999995;0,043000001;0,578999996;0,856732158
2,607123039;0,568000019;0,002;0,598999977;0,825487125
2,61215627;0,493000001;0,043000001;0,699999988;0,857261911
2,617189731;0,508000016;0,02;0,644999981;0,821272788
2,622223048;0,48300001;0;0,699999988;0,850463987
2,627256279;0,370999992;0,002;0,635999978;0,736302224
2,632289437;0,349000007;0,085000001;0,598999977;0,698446116
2,637322745;0,195999995;0,094999999;0,578999996;0,618612959
2,642356198;0,142000005;0,127000004;0,432000011;0,472140882
2,647389198;-0,023;0,175999999;0,30399999;0,352024138
2,652422663;-0,050999999;0,128999993;0,246999994;0,283286066
2,657455894;-0,191;0,050999999;0,195999995;0,278384622
2,662489202;-0,238999993;0,126000002;0,143000007;0,305689383
2,667522467;-0,379999995;0,223000005;0,261999995;0,512613886
2,672555928;-0,374000013;0,197999999;0,328000009;0,535410137
2,677589159;-0,514999986;0,287999988;0,368000001;0,695408498
2,682622462;-0,51700002;0,335999995;0,507000029;0,798269407
2,687655615;-0,435000002;0,351000011;0,592999995;0,814907972
2,692688918;-0,55400002;0,289000005;0,555000007;0,83574041
2,697722149;-0,503000021;0,317000002;0,653999984;0,883863112
2,70275538;-0,432000011;0,314999998;0,635999978;0,830870014
2,707788841;-0,39199999;0,328000009;0,670000017;0,842702807
2,712822149;-0,308999985;0,298000008;0,598999977;0,736943667
2,71785538;-0,238000005;0,393000007;0,593999982;0,750952053
2,722888611;-0,131999999;0,398999989;0,644999981;0,769837623
2,727922072;-0,048999999;0,469000012;0,873000026;0,992215227
2,732955327;0,089000002;0,453999996;1,126000047;1,217338532
2,737988635;0,150999993;0,337000012;1,424000025;1,471103693
2,743021779;0,240999997;0,414999992;1,758999944;1,823290101
2,748055087;0,456;0,259000003;2,042999983;2,109233494
2,753088342;0,527999997;0,122000001;2,490999937;2,549264342
2,758121803;0,542999983;-0,023;2,812000036;2,864039487
2,763155019;0,552999973;-0,250999987;3,029999971;3,090260473
2,76818825;0,483999997;-0,39199999;3,414000034;3,470348142
2,773221568;0,377999991;-0,646000028;3,394000053;3,475548358
2,778255029;0,239999995;-0,781000018;3,503000021;3,597022404
2,783288014;0,157000005;-1,034999967;3,499000072;3,652242522
2,788321476;-0,093999997;-1,215999961;3,326999903;3,543503952
2,79335477;-0,300000012;-1,355999947;3,184999943;3,474616597
2,798387923;-0,521000028;-1,514000058;2,891000032;3,304772064
2,803421149;-0,737999976;-1,636000037;2,536999941;3,10765326
2,808454457;-0,941999972;-1,593000054;2,095999956;2,796109607
2,813487938;-1,154999971;-1,652999997;1,656000018;2,609361988
2,818521169;-1,228999972;-1,620000005;1,205000043;2,363655231
2,8235544;-1,264000058;-1,600999951;1,131000042;2,33239321
2,828587708;-1,396999955;-1,600999951;0,741999984;2,250638508
2,833620938;-1,409000039;-1,481999993;0,492000014;2,10325203
2,838654092;-1,350999951;-1,330000043;0,430000007;1,943965275
2,843687376;-1,386000037;-1,210000038;0,240999997;1,855580015
2,848720838;-1,347000003;-1,152999997;0,204999998;1,784892994
2,853754082;-1,200000048;-0,86500001;0,172000006;1,489231054
2,858787313;-1,225999951;-0,925999999;0,215000004;1,551379025
2,863820612;-1,057000041;-0,848999977;0,021;1,355909675
2,868853843;-0,967000008;-0,663999975;0,225999996;1,194596576
2,873887299;-0,746999979;-0,624000013;0,31400001;1,022732121
2,87892053;-0,61500001;-0,579999983;0,455000013;0,960026044
2,883953742;-0,584999979;-0,532999992;0,638000011;1,016542169
2,888987049;-0,458999991;-0,499000013;0,773999989;1,028959663
2,894020203;-0,368000001;-0,5;0,790000021;1,004750732
2,899053511;-0,257999986;-0,561999977;0,82099998;1,027837017
2,90408677;-0,338;-0,609000027;0,735000014;1,012595701
2,909120231;-0,319000006;-0,676999986;0,82099998;1,110914467
2,914153525;-0,368000001;-0,736999989;0,64200002;1,044393129
2,919186756;-0,521000028;-0,704999983;0,629000008;1,078937911
2,924219987;-0,609000027;-0,76700002;0,425000012;1,067611855
2,929253477;-0,657000005;-0,763000011;0,298000008;1,050058107
2,934286708;-0,822000027;-0,788999975;0,014;1,139474003
2,93931992;-0,864000022;-0,670000017;-0,098999999;1,097814675
2,944353227;-0,953000009;-0,781000018;-0,331;1,275825633
2,949386458;-0,977999985;-0,754999995;-0,479000002;1,325122623
2,954419689;-1,036999941;-0,718999982;-0,744000018;1,464877427
2,95945292;-1,118999958;-0,714999974;-0,91900003;1,614913906
2,964486376;-1,11500001;-0,639999986;-1,065999985;1,670084121
2,969519607;-1,236999989;-0,694000006;-1,327000022;1,942352707
2,97455292;-1,274000049;-0,676999986;-1,360999942;1,983362283
2,979586151;-1,273000002;-0,66900003;-1,588000059;2,142389841
2,984619597;-1,322000027;-0,648000002;-1,822000027;2,342492726
2,989652828;-1,383000016;-0,565999985;-1,817000031;2,352559062
2,994686069;-1,335999966;-0,526000023;-1,848999977;2,341019617
2,999719299;-1,394999981;-0,467999995;-1,85800004;2,370066052
3,004752597;-1,345000029;-0,363999993;-1,726999998;2,219020069
3,009785828;-1,307000041;-0,370999992;-1,590999961;2,092168965
3,014819054;-1,287999988;-0,305999994;-1,557999969;2,044491102
3,019852515;-1,269999981;-0,216999993;-1,523000002;1,994872917
3,024885746;-1,253000021;-0,245000005;-1,332000017;1,84506317
3,029919035;-1,182999969;-0,217999995;-1,284999967;1,760181194
3,034952266;-1,077999949;-0,224999994;-1,276000023;1,685492494
3,039985746;-1,006999969;-0,226999998;-1,274000049;1,639711579
3,045018977;-0,968999982;-0,159999996;-1,212000012;1,559969549
3,050052194;-1,059999943;-0,187999994;-1,023000002;1,485083459
3,055085424;-0,948000014;-0,142000005;-1,029000044;1,406310463
3,060118669;-0,875;-0,077;-0,958000004;1,299737669
3,065151977;-0,843999982;-0,158999994;-0,828999996;1,193674144
3,070185444;-0,72299999;-0,109999999;-0,800999999;1,084633571
3,075218674;-0,699000001;-0,085000001;-0,634000003;0,947513591
3,080251862;-0,58099997;-0,226999998;-0,56099999;0,838934415
3,08528517;-0,521000028;-0,187999994;-0,455000013;0,71680544
3,090318386;-0,414000005;-0,238000005;-0,411000013;0,630048425
3,095351616;-0,435000002;-0,119000003;-0,381999999;0,591024536
3,100385078;-0,451000005;-0,215000004;-0,247999996;0,557790287
3,105418309;-0,433999985;-0,213;-0,263000011;0,550358059
3,110451539;-0,382999986;-0,096000001;-0,209999993;0,447219171
3,11548479;-0,395000011;-0,226999998;-0,241999999;0,515866268
3,120518098;-0,504000008;-0,164000005;-0,141000003;0,548445996
3,125551333;-0,535000026;-0,162;-0,170000002;0,584267943
3,130584794;-0,708000004;-0,174999997;-0,071999997;0,732852649
3,13561803;-0,778999984;-0,156000003;-0,225999996;0,825986062
3,140651338;-0,773000002;-0,145999998;-0,252000004;0,82604419
3,145684492;-0,823000014;-0,173999995;-0,298000008;0,892417518
3,15071804;-0,787999988;-0,108999997;-0,298000008;0,849487483
3,155751271;-0,853999972;-0,217999995;-0,344000012;0,946137389
3,160784251;-0,851000011;-0,225999996;-0,316000015;0,935485449
3,165817712;-0,845000029;-0,245000005;-0,338999987;0,942852609
3,170850923;-0,847000003;-0,194999993;-0,354999989;0,938860477
3,175884154;-0,853999972;-0,204999998;-0,35800001;0,948422353
3,180917448;-0,717999995;-0,197999999;-0,324000001;0,81222164
3,185950909;-0,769999981;-0,187999994;-0,335000008;0,860505069
3,190984159;-0,751999974;-0,120999999;-0,224000007;0,793927556
3,19601739;-0,595000029;-0,203999996;-0,134000003;0,643115101
3,201050626;-0,59799999;-0,218999997;-0,108999997;0,646100601
3,206083933;-0,597000003;-0,180999994;-0,043000001;0,625315122
3,211117149;-0,503000021;-0,240999997;0,071999997;0,562382449
3,21615038;-0,400000006;-0,208000004;0,064000003;0,455367991
3,221183846;-0,352999985;-0,165999994;0,136999995;0,413441635
3,226217077;-0,307999998;-0,254999995;0,264999986;0,479701979
3,231250376;-0,35800001;-0,241999999;0,268999994;0,509007862
3,236283607;-0,289000005;-0,225999996;0,441000015;0,573653217
3,241316837;-0,248999998;-0,32100001;0,423000008;0,586490419
3,246350299;-0,237000003;-0,345999986;0,333999991;0,536135231
3,251383587;-0,236000001;-0,414999992;0,412;0,630606846
3,256416741;-0,203999996;-0,31400001;0,389999986;0,540658852
3,261449995;-0,165000007;-0,335000008;0,280000001;0,46674405
3,266483303;-0,044;-0,257999986;0,244000003;0,357821176
3,27151676;-0,083999999;-0,326000005;0,186000004;0,384614098
3,27654999;-0,057;-0,180000007;0,182999998;0,262941062
3,281583193;-0,021;-0,162;0,152999997;0,223816888
3,286616501;0,090999998;-0,075999998;0,202000007;0,234224256
3,291649727;-0,016000001;-0,081;0,201000005;0,217297037
3,296682957;0,074000001;0,048;0,340999991;0,352222932
3,301716448;0,082000002;0,092;0,546999991;0,560711147
3,306749679;0,141000003;0,108000003;0,744000018;0,764905895
3,311782986;0,199000001;0,116999999;0,990999997;1,017531814
3,316816168;0,085000001;0,25;1,029000044;1,062339913
3,321849399;0,134000003;0,307999998;1,149999976;1,19804839
3,326882651;0,144999996;0,236000001;1,141000032;1,174138865
3,331916112;0,108000003;0,236000001;1,082000017;1,112692248
3,33694942;0,222000003;0,291000009;1,125;1,18304269
3,341982651;0,238000005;0,280999988;1,15199995;1,209425021
3,347015882;0,352999985;0,435000002;1,149999976;1,279192689
3,352049381;0,317999989;0,474000007;1,182999969;1,313502541
3,357082381;0,344999999;0,629000008;1,133999944;1,341872528
3,362115843;0,411000013;0,546999991;1,296000004;1,465519024
3,367149074;0,441000015;0,596000016;1,254999995;1,457642624
3,372182333;0,411000013;0,643999994;1,338000059;1,540746949
3,377215641;0,414999992;0,620000005;1,325000048;1,520608472
3,382248886;0,501999974;0,523999989;1,251000047;1,446229954
3,387282347;0,490999997;0,465999991;1,284999967;1,452398672
3,392315573;0,574000001;0,38499999;1,202000022;1,386544282
3,397348881;0,582000017;0,377999991;1,238000035;1,419243496
3,402382136;0,748000026;0,333000004;1,315999985;1,549919031
3,407415597;0,845000029;0,335999995;1,457999945;1,718337826
3,412448588;0,968999982;0,223000005;1,63499999;1,913613058
3,41748205;1,083999991;0,082999997;1,963999987;2,244825367
3,422515323;1,192999959;0,067000002;2,377000093;2,660426159
3,42754863;1,179999948;0,050999999;2,671999931;2,921401121
3,432581847;1,371999979;0,023;3,142999887;3,429484106
3,437615309;1,38499999;-0,011;3,423000097;3,692597411
3,44264853;1,376000047;-0,093999997;3,709000111;3,957132036
3,447681761;1,355999947;-0,282000005;3,948999882;4,184836905
3,452715087;1,333999991;-0,426999986;3,928999901;4,171201887
3,457748318;1,235000014;-0,541999996;3,875;4,103000613
3,462781558;1,019999981;-0,786000013;3,723999977;3,940351737
3,467814789;0,885999978;-0,981999993;3,480000019;3,722864499
3,47284825;0,675999999;-1,041000009;3,099999905;3,339259862
3,47788148;0,435000002;-1,217000008;2,489000082;2,804538363
3,482914827;0,243000001;-1,22300005;2,052999973;2,401996464
3,487948058;0,006;-1,228000045;1,577000022;1,998736896
3,49298154;-0,097999997;-1,297000051;1,184999943;1,759556193
3,49801477;-0,254000008;-1,187999964;0,838999987;1,476408106
3,503047982;-0,279000014;-1,092000008;0,374000013;1,187510435
3,508081213;-0,342999995;-0,962000012;0,063000001;1,023260485
3,513114482;-0,254999995;-0,940999985;-0,156000003;0,987340858
3,518147943;-0,209000006;-0,847000003;-0,379999995;0,951572385
3,523180943;-0,151999995;-0,700999975;-0,477999985;0,861968068
3,528214131;0,045000002;-0,611000001;-0,575999975;0,840905449
3,533247592;0,224000007;-0,483999997;-0,524999976;0,748369545
3,538280857;0,386999995;-0,532999992;-0,503000021;0,828774402
3,543314088;0,497000009;-0,419999987;-0,300999999;0,716944905
3,548347338;0,740999997;-0,474000007;-0,122000001;0,888054617
3,553380799;0,966000021;-0,388000011;0,135000005;1,049726179
3,558414107;1,13499999;-0,456999987;0,44600001;1,302301799
3,563447276;1,18900001;-0,425000012;0,589999974;1,393716615
3,568480507;1,297000051;-0,586000025;0,790000021;1,627791508
3,573513804;1,154000044;-0,572000027;0,912999988;1,578755557
3,578547035;1,212000012;-0,667999983;0,978999972;1,695172249
3,583580497;1,116999984;-0,672999978;1,050999999;1,674878781
3,588613727;0,948000014;-0,796000004;1,008999944;1,59699747
3,593646958;0,882000029;-0,871999979;0,827000022;1,490716959
3,598680266;0,740999997;-0,893999994;0,620999992;1,31679838
3,603713703;0,560000002;-0,949000001;0,308999985;1,144413385
3,608746934;0,467000008;-1,105000019;0,004;1,199637466
3,613780184;0,273000002;-1,103999972;-0,213;1,157028064
3,618813415;0,179000005;-1,050999999;-0,657000005;1,25231426
3,623846723;0,045000002;-1,123000026;-0,887000024;1,431755252
3,628879944;0,028000001;-1,197999954;-1,075000048;1,609848748
3,633913175;-0,07;-1,136999965;-1,345000029;1,762581628
3,638946637;-0,101999998;-1,235000014;-1,457999945;1,913476646
3,643979857;-0,240999997;-1,146999955;-1,539000034;1,934479517
3,649013088;-0,215000004;-1,06400001;-1,529999971;1,875958671
3,654046415;-0,189999998;-1,062000036;-1,601999998;1,931410901
3,659079646;-0,197999999;-0,990999997;-1,496000051;1,805353469
3,664113083;-0,111000001;-0,966000021;-1,555999994;1,834833241
3,669146391;-0,02;-0,927999973;-1,373999953;1,658149517
3,674179531;0,055;-0,861999989;-1,299999952;1,560791099
3,679212762;0,169;-0,720000029;-1,164000034;1,379078359
3,684246024;0,330000013;-0,661000013;-1,172999978;1,38627197
3,689279255;0,294;-0,561999977;-1,088999987;1,260238447
3,69431252;0,463;-0,453000009;-1,041000009;1,226074641
3,699345981;0,477999985;-0,323000014;-1,02699995;1,177939681
3,704379294;0,671999991;-0,312999994;-1,01699996;1,258507808
3,709412525;0,587000012;-0,165999994;-0,971000016;1,146719688
3,71444578;0,70599997;-0,188999996;-0,995000005;1,234577647
3,71947901;0,713999987;-0,098999999;-0,953999996;1,195706056
3,724512491;0,676999986;-0,035999998;-1,059000015;1,257420381
3,729545722;0,741999984;0,037;-1,097000003;1,324893197
3,734578914;0,694999993;0,071999997;-1,180999994;1,372213532
3,739612221;0,713;0,018999999;-1,18599999;1,383953025
3,744645462;0,712000012;-0,016000001;-1,305999994;1,48756042
3,749678924;0,640999973;-0,140000001;-1,399000049;1,54521264
3,754712163;0,639999986;-0,066;-1,342000008;1,488260731
3,759745394;0,637000024;-0,046;-1,457999945;1,591743971
3,764778717;0,632000029;0,045000002;-1,457999945;1,589721006
3,769812178;0,689999998;0,043000001;-1,38499999;1,547958
3,774845207;0,569000006;0,064000003;-1,371999979;1,486687913
3,779878438;0,620000005;0,147;-1,264999986;1,416415889
3,784911875;0,670000017;0,136999995;-1,302999973;1,471556302
3,789945182;0,640999973;0,165999994;-1,25;1,41454479
3,794978404;0,65200001;0,244000003;-1,230000019;1,413343575
3,800011635;0,708000004;0,26699999;-1,182999969;1,404294102
3,805044871;0,704999983;0,303000003;-1,121000051;1,358482644
3,810078332;0,66900003;0,312999994;-1,083999991;1,311711103
3,815111524;0,690999985;0,428000003;-1,001000047;1,289444095
3,820144832;0,726999998;0,363999993;-1,00999999;1,296582035
3,825178063;0,722000003;0,354999989;-0,968999982;1,259472096
3,830211308;0,624000013;0,181999996;-0,873000026;1,088406661
3,83524477;0,653999984;0,145999998;-0,860000014;1,090244011
3,840278001;0,532000005;0,096000001;-0,917999983;1,06534688
3,845311246;0,536000013;0,128999993;-0,782999992;0,957614745
3,850344553;0,540000021;0,014;-0,703999996;0,887362394
3,855378045;0,435000002;0,052999999;-0,64200002;0,777301761
3,860411276;0,349999994;0,008;-0,467000008;0,583654866
3,865444496;0,282999992;-0,017000001;-0,414999992;0,502596248
3,870477727;0,284999996;-0,001;-0,199000001;0,347601781
3,875510968;0,248999998;0,028000001;-0,186000004;0,31205929
3,880544506;0,298000008;0,017000001;-0,127000004;0,324379416
3,885577506;0,097000003;0,098999999;-0,125;0,186641369
3,890610746;0,129999995;0,094999999;-0,011;0,161387727
3,895644208;0,160999998;0,194000006;-0,079000004;0,264193116
3,900677496;0,160999998;0,31099999;-0,162;0,385857478
3,905710727;0,093999997;0,254000008;-0,189999998;0,33083531
3,910743968;0,166999996;0,268000007;-0,377000004;0,491774344
3,91577743;0,123999998;0,268999994;-0,446999997;0,536233152
3,920810655;0,122000001;0,272000015;-0,419999987;0,515041743
3,925843886;0,141000003;0,474999994;-0,370000005;0,618389844
3,930877141;0,243000001;0,513999999;-0,259000003;0,624760755
3,935910449;0,273000002;0,561999977;-0,041999999;0,626208412
3,940943684;0,365999997;0,70599997;0,128999993;0,805625815
3,945977146;0,400000006;0,708000004;0,437000006;0,923164675
3,951010377;0,469999999;0,708000004;0,683000028;1,09025366
3,956043597;0,449999988;0,647000015;0,99000001;1,265388884
3,961076905;0,550000012;0,632000029;1,205000043;1,467633862
3,966110367;0,386000007;0,533999979;1,350999951;1,503114384
3,971143608;0,319999993;0,514999986;1,422999978;1,546788259
3,976176838;0,236000001;0,432000011;1,411999941;1,495347399
3,981210102;0,097999997;0,446999997;1,325000048;1,401798175
3,986243333;0,033;0,453999996;1,20599997;1,289046518
3,99127666;-0,052999999;0,493999988;0,90200001;1,029781048
3,99630989;-0,170000002;0,598999977;0,760999978;0,98327104
4,001343352;-0,296000004;0,616999984;0,476999998;0,834166638
4,006376583;-0,342000008;0,68900001;0,270000011;0,815220845
4,011409871;-0,405999988;0,744000018;0,150999993;0,860914058
4,016443333;-0,425999999;0,818000019;-0,017999999;0,922455435
4,021476343;-0,449000001;0,949999988;-0,02;1,050952415
4,026509804;-0,44600001;0,896000028;-0,194999993;1,019684782
4,031543112;-0,456999987;1,019999981;-0,194999993;1,134580956
4,036576266;-0,435000002;1,046000004;-0,093000002;1,136657385
4,041609497;-0,338;1,054999948;0,185000002;1,12316245
4,046642805;-0,143000007;1,146000028;0,616999984;1,309371622
4,051676035;0,025;1,044999957;1,070000052;1,495844251
4,056709497;0,208000004;0,888999999;1,728999972;1,955255969
4,061742732;0,430999994;0,890999973;2,296999931;2,501169853
4,066776039;0,739000022;0,681999981;3,072999954;3,233353325
4,071809256;0,851000011;0,547999978;3,598999977;3,738623521
4,076842487;1,001000047;0,342999995;4,173999786;4,306033477
4,081875747;0,920000017;0,066;4,676000118;4,76610251
4,086909208;0,787999988;-0,240999997;4,931000233;4,999378789
4,091942434;0,671000004;-0,477999985;4,977000237;5,044725597
4,096975665;0,411000013;-0,703999996;4,985000134;5,051214046
4,102008973;0,013;-0,975000024;4,671000004;4,771691009
4,107042203;-0,256999999;-1,128000021;4,242000103;4,396930511
4,112075641;-0,531000018;-1,319000006;3,515000105;3,791694578
4,117108872;-0,773999989;-1,557999969;2,782999992;3,282000738
4,122142145;-1,057000041;-1,616999984;2,154000044;2,893381106
4,127175376;-1,309000015;-1,55400002;1,546000004;2,553137896
4,132208828;-1,432999969;-1,450999975;0,97299999;2,259561643
4,137241828;-1,605999947;-1,368999958;0,578000009;2,188031244
4,142275294;-1,633999944;-1,179999948;0,211999997;2,026647402
4,147308525;-1,570000052;-1,062999964;0;1,896014
4,152341843;-1,601999998;-0,907000005;-0,173999995;1,849142775
4,157375073;-1,491000056;-0,76700002;-0,216000006;1,690569786
4,162408511;-1,340999961;-0,550000012;-0,247999996;1,470470981
4,167441742;-1,215999961;-0,423999995;-0,133000001;1,29465088
4,172474968;-1,09800005;-0,43900001;0,007;1,182528697
4,177508275;-0,906000018;-0,282999992;0,075999998;0,9522085
4,182541501;-0,802999973;-0,222000003;0,116999999;0,841297782
4,187574963;-0,662999988;-0,279000014;0,182999998;0,742225701
4,192608159;-0,561999977;-0,243000001;0,273999989;0,670797263
4,19764139;-0,442000002;-0,316000015;0,352999985;0,647942127
4,202674621;-0,270999998;-0,347000003;0,425999999;0,612638556
4,207707905;-0,143000007;-0,300999999;0,507000029;0,606711654
4,212741135;-0,224999994;-0,423999995;0,694999993;0,844645478
4,217774601;-0,119000003;-0,465999991;0,791000009;0,925741868
4,222807832;-0,085000001;-0,555999994;0,810000002;0,986134371
4,227841139;-0,001;-0,568000019;0,882000029;1,049070576
4,232874293;-0,050999999;-0,771000028;0,801999986;1,113663333
4,23790763;-0,107000001;-0,860000014;0,771000028;1,159952614
4,242941092;-0,133000001;-1,003000021;0,709999979;1,236041266
4,247974092;-0,419999987;-1,082999945;0,528999984;1,276373712
4,253007553;-0,528999984;-1,210999966;0,316000015;1,358756015
4,258040861;-0,721000016;-1,220999956;0,141000003;1,424978216
4,263074082;-0,864000022;-1,345999956;-0,068000004;1,60088598
4,268107312;-1,036999941;-1,360000014;-0,35800001;1,747321643
4,273140774;-1,15199995;-1,419999957;-0,583000004;1,919216707
4,278173948;-1,258000016;-1,41900003;-0,810000002;2,062092415
4,283207255;-1,350999951;-1,36500001;-0,912;2,126069118
4,28824038;-1,319000006;-1,453999996;-1,207999945;2,305025134
4,293273688;-1,389000058;-1,368000031;-1,317000031;2,352707871
4,298306919;-1,360000014;-1,407999992;-1,48300004;2,455881336
4,303340394;-1,327000022;-1,360999942;-1,429999948;2,37868656
4,308373625;-1,220999956;-1,335000038;-1,595999956;2,412526032
4,313406861;-1,014999986;-1,274999976;-1,68599999;2,344876516
4,318440169;-1,023000002;-1,23300004;-1,621000051;2,279135641
4,323473423;-0,758000016;-1,110000014;-1,671000004;2,144505787
4,328506885;-0,80400002;-1,217000008;-1,590999961;2,158422092
4,333540097;-0,711000025;-1,095000029;-1,55400002;2,029645822
4,338573404;-0,690999985;-1,054999948;-1,475000024;1,940652194
4,343606577;-0,578999996;-0,990999997;-1,337000012;1,762070096
4,348639885;-0,512000024;-0,925000012;-1,271000028;1,653242304
4,353673366;-0,458000004;-0,896000028;-1,133999944;1,516092321
4,358706596;-0,330000013;-0,731000006;-1,042999983;1,315716528
4,363739846;-0,238000005;-0,711000025;-0,879999995;1,156099057
4,368773154;-0,184;-0,675999999;-0,836000025;1,090746552
4,37380663;-0,234999999;-0,637000024;-0,753000021;1,013904859
4,378839861;-0,004;-0,610000014;-0,683000028;0,915753818
4,383872865;-0,066;-0,610000014;-0,714999974;0,942168233
4,388906327;-0,068999998;-0,611999989;-0,773999989;0,989131421
4,393939625;-0,035999998;-0,588;-0,873000026;1,053170947
4,398972856;-0,140000001;-0,49000001;-0,842999995;0,985062942
4,404006101;-0,150999993;-0,550000012;-0,908999979;1,073117875
4,409039332;-0,231000006;-0,512000024;-1,123000026;1,255640906
4,414072788;-0,367000014;-0,412999988;-0,992999971;1,136356873
4,419106096;-0,419;-0,34799999;-0,964999974;1,108101955
4,424139323;-0,501999974;-0,232999995;-1,004999995;1,147309009
4,429172554;-0,472000003;-0,144999996;-0,77700001;0,92061828
4,434206019;-0,504000008;-0,108000003;-0,810000002;0,960093752
4,439239019;-0,453999996;0,041999999;-0,819999993;0,938232372
4,444272549;-0,488000005;0,050000001;-0,76700002;0,910457597
4,449305779;-0,404000014;0,057999998;-0,739000022;0,844216231
4,454339115;-0,407999992;0,075999998;-0,771000028;0,875603241
4,459372346;-0,356000006;0,075999998;-0,728999972;0,814833089
4,464405808;-0,432000011;0,034000002;-0,713999987;0,835210148
4,469439038;-0,476999998;0,026000001;-0,721000016;0,864896538
4,474472274;-0,467000008;0,187999994;-0,596000016;0,780159614
4,479505582;-0,507000029;0,120999999;-0,602999985;0,797056467
4,484538995;-0,550000012;0,243000001;-0,298999995;0,671528116
4,489572226;-0,404000014;0,280000001;-0,108000003;0,503269324
4,494605452;-0,338999987;0,34799999;0,169;0,514379222
4,499638683;-0,412;0,344000012;0,432000011;0,688987676
4,504671913;-0,409999996;0,340000004;0,76700002;0,933803528
4,509705207;-0,324999988;0,293000013;0,823000014;0,932096037
4,514738669;-0,361999989;0,333999991;1,027999997;1,13990525
4,5197719;-0,314999998;0,179000005;1,175999999;1,230545407
4,52480513;-0,291999996;0,135000005;1,213000059;1,254933521
4,529838467;-0,398000002;0,054000001;1,322000027;1,381667135
4,534871698;-0,419;0,089000002;1,284999967;1,354513534
4,539905159;-0,368000001;0,105999999;1,340000033;1,393649916
4,544938467;-0,330000013;0,131999999;1,388000011;1,432783319
4,549971712;-0,197999999;0,266000003;1,246999979;1,290336758
4,555004866;-0,228;0,229000002;1,501999974;1,536368746
4,560038187;-0,082000002;0,291999996;1,261999965;1,297933707
4,565071418;0,014;0,354999989;1,279000044;1,327426874
4,57010463;0,090999998;0,374000013;1,101999998;1,167287884
4,575138091;0,002;0,470999986;0,93900001;1,050507499
4,580171376;0,057;0,354000002;0,810000002;0,885813189
4,585204607;0,044;0,460999995;0,638000011;0,788353354
4,590238074;-0,074000001;0,575999975;0,559000015;0,806060164
4,595271074;-0,061000001;0,651000023;0,538999975;0,847374181
4,600304548;-0,145999998;0,70599997;0,419999987;0,834357206
4,605337856;-0,079999998;0,697000027;0,419;0,817171975
4,610371082;-0,218999997;0,768000007;0,421999991;0,903254671
4,615404312;-0,151999995;0,848999977;0,456;0,97562337
4,620437548;-0,083999999;0,843999982;0,574000001;1,024142554
4,62547101;-0,082000002;0,861000001;0,398999989;0,952494616
4,63050424;0,057;0,930000007;0,58099997;1,098048259
4,635537471;0,071000002;0,930999994;0,624000013;1,123021819
4,640570761;0,150999993;0,811999977;0,768000007;1,127816018
4,645604222;0,156000003;0,749000013;0,758000016;1,076987022
4,650637246;0,187999994;0,739000022;0,846000016;1,138938566
4,655670707;0,197999999;0,643999994;1,057999969;1,254314125
4,660704005;0,280999988;0,671000004;1,105000019;1,322961466
4,665737236;0,284000009;0,449999988;1,220999956;1,331914745
4,670770466;0,349999994;0,307000011;1,282999992;1,364858228
4,675803697;0,338999987;0,140000001;1,245000005;1,297900614
4,680837169;0,439999998;0,030999999;1,328999996;1,400286395
4,685870399;0,393000007;-0,075000003;1,44599998;1,500329946
4,690903697;0,49000001;-0,131999999;1,600999951;1,67950137
4,695936928;0,588999987;-0,268000007;1,675999999;1,796585925
4,700970413;0,674000025;-0,266000003;1,972000003;2,100908386
4,706003644;0,592000008;-0,324000001;2,342000008;2,437294411
4,711036842;0,703999996;-0,386999995;2,614000082;2,734662944
4,716070073;0,637000024;-0,31400001;2,773999929;2,863466544
4,721103376;0,490999997;-0,416000009;2,819999933;2,892496608
4,726136837;0,528999984;-0,508000016;3,013000011;3,100979534
4,731170034;0,397000015;-0,551999986;2,795000076;2,876514979
4,736203265;0,280999988;-0,619000018;2,671999931;2,757119085
4,741236567;0,186000004;-0,674000025;2,388000011;2,488255632
4,746269721;0,101999998;-0,713;2,006000042;2,131386677
4,751303227;0,037;-0,753000021;1,457000017;1,640495986
4,756336457;0,030999999;-0,779999971;0,917999983;1,205024864
4,761369466;-0,144999996;-0,754000008;0,541000009;0,939266746
4,766402928;-0,131999999;-0,672999978;0,172000006;0,707062212
4,771436241;-0,021;-0,63499999;-0,155000001;0,653980878
4,776469471;0,090999998;-0,492000014;-0,389999986;0,634385531
4,781502702;0,236000001;-0,425000012;-0,488999993;0,689523026
4,786536164;0,393999994;-0,312000006;-0,428000003;0,660124232
4,791569371;0,610000014;-0,294;-0,39199999;0,782432112
4,796602678;0,703999996;-0,351000011;-0,157000005;0,802163327
4,801635909;0,898999989;-0,365999997;0,105999999;0,976418444
4,80666914;0,933000028;-0,363999993;0,418000013;1,085223045
4,811702366;1,00999999;-0,500999987;0,834999979;1,402970396
4,816735827;0,972000003;-0,605000019;1,080000043;1,573915221
4,821769058;1,059000015;-0,745999992;1,360999942;1,878914011
4,82680238;0,99000001;-0,75;1,447999954;1,907695963
4,83183561;0,968999982;-0,963;1,677000046;2,163020831
4,836869072;0,944000006;-1,01699996;1,917999983;2,367308358
4,841902303;0,847000003;-1,197000027;1,781999946;2,307756893
4,846935611;0,753000021;-1,263000011;1,825999975;2,344451742
4,851968836;0,754000008;-1,404000044;1,588000059;2,249772505
4,857002067;0,589999974;-1,567000031;1,317000031;2,130276543
4,862035294;0,488999993;-1,590000033;1,078999996;1,982791489
4,867068755;0,354999989;-1,638000011;0,700999975;1,81671957
4,872101981;0,264999986;-1,621999979;0,393999994;1,69007246
4,877135289;0,27700001;-1,547000051;-0,023;1,571771982
4,88216852;0,145999998;-1,343000054;-0,388000011;1,40552807
4,887202025;0,115000002;-1,284999967;-0,771000028;1,50296073
4,892235256;0,006;-1,059999943;-0,971000016;1,437524577
4,897268487;-0,045000002;-1,001999974;-1,299000025;1,641167271
4,902301784;-0,024;-0,875;-1,514000058;1,748827372
4,907335015;0,067000002;-0,813000023;-1,521999955;1,726830015
4,912368516;0,130999997;-0,644999981;-1,781999946;1,899660438
4,917401516;0,125;-0,518000007;-1,799999952;1,877218377
4,922434977;0,223000005;-0,460999995;-1,677999973;1,754404146
4,927468208;0,237000003;-0,409000009;-1,664000034;1,729839913
4,932501545;0,257999986;-0,284000009;-1,672000051;1,715460337
4,937534776;0,381000012;-0,250999987;-1,541000009;1,607122593
4,942568198;0,448000014;-0,157000005;-1,43599999;1,512431481
4,947601429;0,56400001;-0,141000003;-1,335999966;1,457008209
4,952634723;0,555999994;-0,140000001;-1,230999947;1,35797528
4,957667877;0,632000029;-0,171000004;-1,019999981;1,212049916
4,962701184;0,792999983;-0,237000003;-0,787;1,142097621
4,967734646;0,800000012;-0,197999999;-0,632000029;1,038570198
4,972767655;0,855000019;-0,241999999;-0,583999991;1,063317931
4,977801116;0,773000002;-0,284000009;-0,620999992;1,031419409
4,982834347;0,797999978;-0,356000006;-0,603999972;1,062240997
4,987867684;0,81400001;-0,351999998;-0,699000001;1,129203709
4,992900915;0,713999987;-0,326999992;-0,843999982;1,152849056
4,997934376;0,703999996;-0,319999993;-1,082000017;1,329939858
5,002967602;0,745999992;-0,286000013;-1,14199996;1,393727342
5,00800091;0,648999989;-0,268999994;-1,269000053;1,450490647
5,013034064;0,643000007;-0,252999991;-1,498000026;1,649685449
5,018067371;0,702000022;-0,245000005;-1,562000036;1,729934434
5,023100597;0,644999981;-0,231999993;-1,654999971;1,791332989
5,028134059;0,610000014;-0,237000003;-1,845999956;1,958567042
5,033167275;0,649999976;-0,104000002;-1,911999941;2,022142365
5,038200583;0,647000015;-0,142000005;-1,929999948;2,04050798
5,043233785;0,620000005;-0,131999999;-1,850999951;1,956533881
5,048267246;0,610000014;-0,079000004;-1,894999981;1,992326767
5,053300463;0,486000001;-0,088;-1,764999986;1,832802485
5,058333694;0,537999988;-0,037;-1,583999991;1,673280897
5,063366987;0,428000003;-0,024;-1,363999963;1,429774773
5,068400217;0,36500001;-0,067000002;-1,151000023;1,209344889
5,073433458;0,449000001;-0,086999997;-0,795000017;0,917166848
5,078466689;0,340000004;-0,173999995;-0,632000029;0,738444336
5,083500155;0,330000013;-0,147;-0,458000004;0,583329249
5,088533385;0,34799999;-0,300999999;-0,171000004;0,4908625
5,093566712;0,398000002;-0,244000003;-0,057999998;0,470429594
5,098600174;0,358999997;-0,38499999;-0,187999994;0,558972261
5,103633409;0,340999991;-0,437999994;-0,224000007;0,598582485
5,108666409;0,239999995;-0,439999998;-0,196999997;0,538524831
5,113699981;0,187999994;-0,405999988;-0,167999998;0,477916297
5,118733212;0,072999999;-0,239999995;-0,165000007;0,300256556
5,123766428;0,029999999;-0,282000005;-0,123000003;0,309116489
5,128799659;0,046999998;-0,144999996;-0,180999994;0,236632619
5,133833111;-0,003;-0,100000001;-0,104999997;0,14503103
5,138866342;-0,025;-0,011;0,005;0,027766887
5,143899649;0,068000004;0,061999999;-0,001;0,092027172
5,14893288;0,109999999;0,129999995;-0,119999997;0,208326662
5,153966313;0,066;0,252000004;-0,104999997;0,280864738
5,158999543;0,179000005;0,252999991;-0,330000013;0,452714044
5,164032774;0,231000006;0,342000008;-0,256000012;0,485655242
5,16906602;0,275000006;0,377999991;-0,298999995;0,554896381
5,174099251;0,264999986;0,331;-0,221000001;0,478149551
5,179132548;0,414999992;0,444999993;-0,184;0,635693312
5,18416601;0,533999979;0,423999995;0,077;0,686193102
5,189199236;0,61500001;0,58099997;0,407000005;0,938847688
5,194232466;0,711000025;0,684000015;0,526000023;1,118057727
5,199265774;0,871999979;0,670000017;0,851000011;1,390498114
5,204299005;0,760999978;0,80400002;1,16900003;1,6099994
5,209332467;0,837000012;0,742999971;1,332000017;1,739782177
5,214365693;0,822000027;0,744000018;1,488000035;1,855630398
5,219398924;0,704999983;0,825999975;1,559999943;1,900763204
5,224432246;0,588999987;0,811999977;1,524000049;1,824511193
5,229465477;0,493999988;0,848999977;1,424000025;1,729917056
5,234498712;0,404000014;0,839999974;1,297999978;1,598004978
5,239532174;0,291000009;0,84799999;1,197000027;1,495524674
5,244565492;0,268000007;0,847000003;1,171000004;1,469855101
5,249598722;0,188999996;0,980000019;0,943000019;1,373087787
5,254631948;0,005;0,981999993;0,943000019;1,361469068
5,259665179;0,016000001;1,074000001;0,847000003;1,367896563
5,264698641;0,136999995;1,004999995;0,763999999;1,269838567
5,269731948;0,061000001;0,984000027;0,446999997;1,08249067
5,274765083;0,075000003;0,995000005;0,351999998;1,058089792
5,279798314;0,166999996;1,029999971;0,307000011;1,087675478
5,284831607;0,200000003;1,026000023;0,284000009;1,08320453
5,289865068;0,167999998;0,898999989;0,241999999;0,946038572
5,294898348;0,172999993;0,938000023;0,453999996;1,056356492
5,299931656;0,298000008;0,824000001;0,772000015;1,167803078
5,304964886;0,272000015;0,73299998;1,177999973;1,413844729
5,309998131;0,144999996;0,510999978;1,743999958;1,823096769
5,315031593;0,150000006;0,268999994;2,329999924;2,350268207
5,320064851;0,056000002;0,016000001;3,019000053;3,019561777
5,325098082;-0,043000001;-0,206;3,52699995;3,533272371
5,330131346;-0,090000004;-0,536000013;3,937999964;3,975328883
5,335164654;-0,261000007;-0,782999992;4,377999783;4,455119761
5,340197866;-0,340999991;-1,113000035;4,684999943;4,827450107
5,345231327;-0,462000012;-1,223999977;4,664000034;4,844018608
5,350264558;-0,725000024;-1,549999952;4,554999828;4,865814251
5,355297866;-0,859000027;-1,590000033;4,295000076;4,659721752
5,360331115;-1,070000052;-1,753000021;3,903000116;4,410364962
5,365364577;-1,220999956;-1,950000048;3,454999924;4,150947549
5,370397808;-1,286999941;-1,92900002;2,911999941;3,722519789
5,375431038;-1,338999987;-1,906999946;2,354000092;3,31223281
5,380464303;-1,379999995;-1,74000001;1,805999994;2,862452794
5,385497611;-1,493000031;-1,465999961;1,123999953;2,375201228
5,390530847;-1,455000043;-1,274000049;0,711000025;2,060490787
5,395564308;-1,368000031;-0,981999993;0,398999989;1,730592113
5,400597505;-1,409999967;-0,708999991;0,125;1,583163256
5,405630736;-1,208999991;-0,479000002;-0,081;1,302951642
5,410664035;-0,986999989;-0,273999989;-0,245000005;1,053218863
5,415697265;-0,791000009;-0,131999999;-0,412;0,901581396
5,420730707;-0,586000025;0,061000001;-0,433999985;0,731760218
5,425764015;-0,456;0,180999994;-0,395000011;0,62985872
5,430797163;-0,270000011;0,312000006;-0,375999987;0,558229344
5,435830394;-0,229000002;0,360000014;-0,252999991;0,49603428
5,440863707;-0,07;0,407999992;-0,268000007;0,493140951
5,445896938;0,01;0,333000004;-0,135000005;0,359463495
5,450930409;0,177000001;0,303000003;-0,021;0,351538052
5,455963717;0,177000001;0,252999991;0,057;0,313985662
5,460996924;0,263000011;0,104999997;0,101999998;0,300995025
5,466030155;0,280999988;0,021;0,223000005;0,359348015
5,471063365;0,275000006;-0,109999999;0,188999996;0,351348832
5,476096827;0,296999991;-0,256000012;0,391000003;0,553738208
5,481130049;0,250999987;-0,405999988;0,444999993;0,652581012
5,486163279;0,156000003;-0,458999991;0,521000028;0,711658641
5,491196394;0,092;-0,67900002;0,583999991;0,900311622
5,496229702;-0,088;-0,739000022;0,596000016;0,95345742
5,501263159;-0,160999998;-0,83099997;0,56400001;1,017142056
5,50629639;-0,286000013;-0,935000002;0,467999995;1,08399493
5,511329635;-0,388999999;-1,059999943;0,317000002;1,1727787
5,516362943;-0,389999986;-1,197000027;0,107000001;1,263470638
5,52139638;-0,477999985;-1,187000036;-0,170000002;1,290872989
5,52642938;-0,546000004;-1,324000001;-0,481999993;1,511097614
5,531462842;-0,697000027;-1,281000018;-0,646000028;1,59501916
5,536496092;-0,646000028;-1,141000032;-0,998000026;1,647786746
5,541529322;-0,781000018;-1,177000046;-1,243999958;1,882239632
5,546562596;-0,773999989;-1,083999991;-1,360999942;1,904324764
5,551595827;-0,742999971;-1,074000001;-1,652999997;2,106640441
5,556629058;-0,801999986;-0,883000016;-1,79400003;2,154374413
5,56166251;-0,72299999;-0,763999999;-1,871000051;2,146407738
5,566695818;-0,744000018;-0,723999977;-2,071000099;2,316625435
5,571729088;-0,591000021;-0,656000018;-2,056999922;2,238496309
5,576762549;-0,458000004;-0,518999994;-2,092000008;2,203540113
5,58179578;-0,400999993;-0,493999988;-1,965999961;2,066396097
5,586829011;-0,314999998;-0,356000006;-1,738000035;1,801833823
5,591862276;-0,241999999;-0,194999993;-1,480000019;1,512279423
5,596895583;-0,136999995;-0,182999998;-1,398000002;1,416566978
5,601928819;-0,008;-0,155000001;-1,077000022;1,088125934
5,60696205;0,001;-0,199000001;-0,967000008;0,98726441
5,611995588;0,082999997;-0,231999993;-0,824999988;0,861009859
5,617028819;0,050999999;-0,236000001;-0,82099998;0,855767473
5,622062025;0,128999993;-0,330000013;-0,70599997;0,789922126
5,627095486;0,023;-0,412999988;-0,707000017;0,819113554
5,632128674;-0,093000002;-0,404000014;-0,824999988;0,923303846
5,637161905;-0,02;-0,456;-1,021000028;1,118381445
5,642195151;-0,101000004;-0,51700002;-1,052999973;1,177411977
5,647228458;-0,195999995;-0,405000001;-1,258000016;1,336040808
5,652261664;-0,178000003;-0,382999986;-1,404999971;1,467105283
5,657294895;-0,236000001;-0,293000013;-1,417999983;1,467061335
5,662328454;-0,229000002;-0,312000006;-1,600000024;1,646142485
5,667361684;-0,31099999;-0,186000004;-1,582999945;1,623947604
5,672394987;-0,298999995;-0,071000002;-1,613999963;1,642996615
5,677428449;-0,206;-0,006;-1,60800004;1,621152716
5,682461439;-0,259000003;-0,012;-1,442999959;1,466108415
5,687494669;-0,261999995;0,041000001;-1,378999949;1,404267017
5,692528136;-0,254999995;0,138999999;-1,246000051;1,279399127
5,697561367;-0,097000003;0,093999997;-1,149000049;1,156912318
5,702594635;-0,223000005;0,153999999;-1,059999943;1,094095462
5,707627866;-0,187999994;0,156000003;-0,90200001;0,934496665
5,712661126;-0,158000007;0,179000005;-0,805999994;0,840619411
5,717694588;-0,150999993;0,074000001;-0,672999978;0,69369011
5,72272789;-0,159999996;0,044;-0,533999979;0,559188677
5,727761121;-0,240999997;0,037999999;-0,379999995;0,451580552
5,732794579;-0,217999995;0,028000001;-0,254000008;0,335892843
5,737827579;-0,248999998;0,066;-0,108999997;0,279710562
5,742861035;-0,282000005;-0,037;0,108999997;0,304588251
5,747894266;-0,256999999;-0,005;0,164000005;0,304909825
5,75292754;-0,354000002;-0,041000001;0,239999995;0,429647529
5,75796077;-0,231999993;0;0,291000009;0,372162601
5,762994232;-0,312000006;0,02;0,279000014;0,419028653
5,768027463;-0,305000007;0,052999999;0,324000001;0,448118293
5,77306068;-0,300000012;0,022;0,268000007;0,402874684
5,778093987;-0,254000008;0,133000001;0,244000003;0,376485067
5,783127251;-0,209000006;0,214000002;0,25999999;0,396329406
5,788160713;-0,230000004;0,354999989;0,372999996;0,563962757
5,793193747;-0,055;0,40200001;0,243000001;0,472946095
5,798227208;-0,101000004;0,455000013;0,225999996;0,517978775
5,803260439;-0,016000001;0,379000008;0,149000004;0,407551233
5,808293747;0,017000001;0,384000003;0,204999998;0,435625989
5,813327208;-0,039000001;0,370000005;0,171000004;0,409465511
5,818360439;-0,048999999;0,470999986;0,245000005;0,533166943
5,82339368;-0,133000001;0,402999997;0,200000003;0,469146032
5,828426987;-0,101999998;0,351999998;0,351999998;0,508145645
5,833460155;-0,155000001;0,395999998;0,485000014;0,645031792
5,838493463;-0,163000003;0,455000013;0,81400001;0,946673138
5,843526925;-0,236000001;0,35800001;0,949000001;1,041374577
5,848559954;-0,126000002;0,323000014;1,174000025;1,224124613
5,853593415;-0,018999999;0,277999997;1,324000001;1,353004435
5,858626723;0,07;0,108999997;1,452999949;1,458763124
5,863659954;0,201000005;0,115999997;1,56400001;1,581123978
5,868693184;0,395999998;0,109999999;1,639999986;1,690714627
5,87372667;0,48300001;0,133000001;1,932000041;1,995896332
5,878759978;0,639999986;0,379000008;2,017999887;2,150712564
5,883793227;0,684000015;0,393000007;2,132999897;2,274201747
5,888826458;0,736000001;0,453000009;2,167999983;2,333908511
5,893859698;0,712000012;0,374000013;2,142999887;2,288944854
5,898892929;0,634000003;0,287;1,996000051;2,113845124
5,903926376;0,518000007;0,201000005;2,003999949;2,079601116
5,908959684;0,587000012;0,109999999;1,86500001;1,958288551
5,913992934;0,460999995;0,002;1,815000057;1,872631892
5,919026395;0,395999998;-0,136000007;1,779999971;1,828581936
5,924059641;0,225999996;-0,261999995;1,745000005;1,778973022
5,929092872;0,185000002;-0,550999999;1,870000005;1,958245648
5,934126194;0,029999999;-0,663999975;2,101999998;2,20458612
5,939159655;-0,064000003;-0,850000024;2,223999977;2,381758161
5,94419266;-0,216000006;-0,984000027;2,428999901;2,629629741
5,949225891;-0,184;-1,202000022;2,65199995;2,917492723
5,954259348;-0,324000001;-1,322999954;2,790999889;3,105637658
5,959292578;-0,360000014;-1,447999954;2,895999908;3,257778284
5,964325867;-0,448000014;-1,585999966;2,91899991;3,352112823
5,969359329;-0,540000021;-1,661000013;2,76699996;3,272126197
5,974392549;-0,558000028;-1,646000028;2,575999975;3,107483869
5,97942578;-0,649999976;-1,692000031;2,167999983;2,825878271
5,984459011;-0,73299998;-1,601999998;1,694000006;2,444039481
5,989492329;-0,778999984;-1,485000014;1,14199996;2,02884941
5,99452579;-0,73299998;-1,286999941;0,634000003;1,61109088
5,999558833;-0,847000003;-1,01699996;0,119000003;1,328856247
6,004592295;-0,717999995;-0,834999979;-0,217999995;1,122618793
6,009625526;-0,572000027;-0,583000004;-0,564999998;0,993125386
6,014658838;-0,509000003;-0,231000006;-0,842000008;1,010646337
6,019692069;-0,294;-0,188999996;-1,001999974;1,061207306
6,024725497;-0,219999999;0,007;-1,157999992;1,178733635
6,029758727;-0,118000001;0,064999998;-1,210999966;1,218470318
6,034792035;0,155000001;0,233999997;-1,29400003;1,324091038
6,039825189;0,296999991;0,256000012;-1,258000016;1,317690799
6,044858478;0,57099998;0,231000006;-1,116999984;1,27557475
6,049891708;0,83099997;0,35800001;-1;1,348601112
6,054925175;0,91900003;0,407000005;-0,728999972;1,241632401
6,059958406;1,100000024;0,319000006;-0,393000007;1,210871612
6,064991587;1,269999981;0,293000013;-0,165999994;1,313889248
6,070024895;1,287999988;0,238000005;0,140000001;1,317265338
6,075058127;1,371999979;0,112999998;0,568000019;1,489220253
6,080091589;1,36500001;-0,025;0,851000011;1,608742069
6,085124819;1,343000054;-0,263999999;1,113999963;1,764749575
6,090158092;1,213000059;-0,407000005;1,399999976;1,896580629
6,095191323;1,027999997;-0,492000014;1,514000058;1,895005062
6,100224554;0,992999971;-0,795000017;1,822000027;2,222106673
6,105257784;0,799000025;-0,852999985;1,802000046;2,147839421
6,110291246;0,633000016;-0,968999982;1,830000043;2,165306016
6,115324477;0,370999992;-1,161999941;1,779999971;2,157842616
6,120357784;0,215000004;-1,248999953;1,412999988;1,898102961
6,125391015;0,098999999;-1,412999988;1,251999974;1,890469228
6,130424482;-0,028999999;-1,440999985;0,957000017;1,730078319
6,135457713;-0,270000011;-1,430999994;0,605000019;1,576922957
6,140490943;-0,395000011;-1,455000043;0,223000005;1,524066644
6,145524251;-0,437000006;-1,434999943;-0,052000001;1,500965636
6,150557693;-0,467000008;-1,396000028;-0,266000003;1,495881374
6,155590693;-0,518000007;-1,273000002;-0,493000001;1,460103425
6,160623923;-0,492000014;-1,149999976;-0,700999975;1,433863635
6,165657419;-0,411000013;-1,021000028;-0,745999992;1,329615755
6,170690727;-0,386999995;-0,913999975;-0,852999985;1,30872989
6,175723952;-0,134000003;-0,777999997;-0,869000018;1,174053247
6,180757414;-0,011;-0,745000005;-0,856000006;1,134848896
6,185790645;0,115999997;-0,542999983;-0,805999994;0,978744589
6,190823841;0,215000004;-0,449000001;-0,802999973;0,944793607
6,195857072;0,395999998;-0,407000005;-0,800000012;0,981053017
6,200890361;0,51700002;-0,170000002;-0,75;0,926654747
6,205923823;0,677999973;-0,142000005;-0,771000028;1,03647914
6,210956833;0,688000023;-0,077;-0,768000007;1,03397149
6,215990294;0,769999981;-0,108000003;-0,912;1,198460668
6,221023515;0,824000001;-0,119000003;-0,897000015;1,223824346
6,226056823;0,879000008;-0,015;-0,876999974;1,2417709
6,231090294;0,799000025;-0,064000003;-0,98299998;1,268379281
6,236123525;0,740999997;-0,202999994;-1,18900001;1,415630961
6,241156765;0,765999973;-0,022;-1,332999945;1,537572376
6,246190072;0,880999982;-0,093999997;-1,325000048;1,593932902
6,251223269;0,851000011;0,021;-1,424000025;1,659041316
6,256256577;0,873000026;0;-1,434999943;1,679688626
6,261290082;0,893000007;-0,021;-1,401000023;1,661532749
6,266323313;0,796999991;0,109999999;-1,470999956;1,6766484
6,271356558;0,787999988;0,045000002;-1,539000034;1,729592462
6,276389866;0,790000021;-0,052000001;-1,671000004;1,849065993
6,281423107;0,763999999;-0,109999999;-1,697999954;1,865207721
6,286456568;0,652999997;-0,078000002;-1,878000021;1,989818352
6,291489803;0,625999987;-0,037999999;-1,924000025;2,023634374
6,296523111;0,467000008;-0,086000003;-1,850999951;1,910938468
6,301556312;0,409999996;-0,079999998;-1,812999964;1,860502315
6,306589543;0,240999997;-0,025;-1,72300005;1,739952634
6,311622784;0,199000001;-0,021;-1,478000045;1,49148454
6,316656245;0,195999995;-0,067000002;-1,324000001;1,340104847
6,321689495;0,240999997;-0,109999999;-0,943000019;0,979504994
6,326722803;0,32100001;-0,064999998;-0,68599999;0,760172343
6,331755997;0,370999992;-0,210999995;-0,54400003;0,691446328
6,336789458;0,363000005;-0,245000005;-0,338999987;0,55381856
6,341822693;0,342999995;-0,317999989;-0,096000001;0,477481926
6,346855693;0,26699999;-0,381000012;0,054000001;0,468365246
6,351889251;0,254999995;-0,476999998;0,122000001;0,554470915
6,356922481;0,151999995;-0,486999989;0,179000005;0,540660697
6,361955712;0,046999998;-0,566999972;0,131999999;0,584056477
6,366988943;0,092;-0,532000005;0,229000002;0,586454607
6,372022413;0,086999997;-0,551999986;0,223000005;0,601666009
6,377055644;0,078000002;-0,5;0,301999986;0,589311456
6,382088981;0,108999997;-0,423000008;0,294999987;0,527100558
6,387122212;0,088;-0,495000005;0,317999989;0,594889063
6,392155683;0,224999994;-0,296999991;0,40200001;0,548122249
6,397188991;0,254999995;-0,231000006;0,43900001;0,557769674
6,402222145;0,405000001;-0,103;0,347000003;0,543178611
6,407255347;0,432999998;0,074000001;0,204999998;0,484757669
6,412288654;0,532000005;0,149000004;0,175999999;0,579828428
6,417321885;0,588999987;0,238999993;0,093000002;0,64241029
6,422355347;0,587000012;0,294999987;0,085000001;0,662434153
6,427388548;0,610000014;0,490999997;0,064999998;0,785751878
6,432421779;0,703000009;0,49000001;0,082000002;0,860832749
6,437455087;0,759000003;0,686999977;0,173999995;1,038424755
6,442488548;0,734000027;0,791000009;0,446999997;1,168009439
6,447521779;0,815999985;0,950999975;0,708000004;1,439277921
6,452554982;0,910000026;1,057999969;1,032999992;1,736246804
6,457588213;0,824000001;1,06099999;1,269000053;1,847987585
6,462621526;0,765999973;1,172999978;1,679999948;2,187483653
6,467654756;0,725000024;1,111999989;1,76699996;2,210080964
6,472688232;0,524999976;1,059000015;1,94599998;2,276844731
6,477721463;0,508000016;0,912999988;1,858999968;2,132490064
6,482754707;0,330000013;0,802999973;1,758000016;1,960681775
6,487788015;0,104999997;0,717000008;1,498000026;1,664066732
6,492821459;-0,116999999;0,66900003;1,253000021;1,425222471
6,497854689;-0,158000007;0,569000006;1,006000042;1,166516649
6,502888001;-0,256000012;0,515999973;0,64200002;0,862528842
6,507921232;-0,397000015;0,488999993;0,360000014;0,725486054
6,512954454;-0,533999979;0,43599999;0,059999999;0,691991307
6,517987684;-0,42899999;0,391000003;-0,173999995;0,605968639
6,523021141;-0,324000001;0,381999999;-0,319999993;0,59439044
6,528054372;-0,174999997;0,345999986;-0,204999998;0,438595472
6,533087608;0,025;0,224000007;-0,074000001;0,237227746
6,538120915;0,089000002;0,174999997;0,423000008;0,466342155
6,543154146;0,282999992;0,057;1,054999948;1,093783747
6,548187612;0,409999996;-0,059;1,730999947;1,779871291
6,553220919;0,370999992;-0,135000005;2,47300005;2,504315324
6,558254073;0,430999994;-0,193000004;3,227999926;3,262360114
6,563287367;0,335000008;-0,441000015;3,671999931;3,713527907
6,568320828;0,222000003;-0,518999994;4,322999954;4,359698797
6,573353828;-0,01;-0,816999972;4,705999851;4,776402784
6,57838729;-0,191;-0,885999978;4,803999901;4,88875158
6,583420558;-0,400999993;-1,088999987;4,748000145;4,88776302
6,588453866;-0,640999973;-1,276000023;4,409999847;4,635424002
6,593487073;-0,787;-1,383000016;4,051000118;4,352316625
6,598520535;-0,976999998;-1,526000023;3,315000057;3,777887035
6,603553756;-1,108999968;-1,485999942;2,683000088;3,261374898
6,608587063;-1,139000058;-1,434999943;2,023000002;2,729299356
6,613620212;-1,213999987;-1,325000048;1,45599997;2,312867702
6,61865352;-1,335999966;-1,141000032;0,889999986;1,96948647
6,623686775;-1,281999946;-0,907000005;0,486000001;1,643888339
6,628720236;-1,144000053;-0,675000012;0,026000001;1,328547003
6,633753467;-1,029999971;-0,458999991;-0,389999986;1,19318101
6,63878677;-0,901000023;-0,164000005;-0,629000008;1,111007675
6,64382;-0,555000007;0,055;-0,79400003;0,970302043
6,648853221;-0,519999981;0,264999986;-0,935000002;1,10220233
6,653886683;-0,289999992;0,481000006;-0,92900002;1,085588337
6,658919914;-0,050999999;0,504999995;-0,853999972;0,99344952
6,663953231;0,075000003;0,703000009;-0,760999978;1,038727577
6,668986462;0,194999993;0,699000001;-0,602999985;0,943522645
6,674019712;0,296999991;0,646000028;-0,48300001;0,859542925
6,679052943;0,393999994;0,662999988;-0,284999996;0,822210421
6,684086399;0,460000008;0,573000014;-0,07;0,738125344
6,689119707;0,504000008;0,44600001;-0,057;0,675411739
6,694152938;0,559000015;0,36500001;0,158000007;0,686053953
6,699186168;0,476999998;0,324999988;0,247999996;0,628218106
6,70421963;0,592000008;0,228;0,367000014;0,732896322
6,70925263;0,507000029;0,071999997;0,479000002;0,701194717
6,714286164;0,493999988;0,079000004;0,611999989;0,790456181
6,719319394;0,381999999;-0,035;0,519999981;0,6461803
6,724352625;0,280000001;-0,234999999;0,694000006;0,784385752
6,729385856;0,224999994;-0,335999995;0,456;0,609472718
6,734419317;0,086999997;-0,451000005;0,540000021;0,708921736
6,739452548;-0,026000001;-0,537;0,314999998;0,623113151
6,744485851;-0,094999999;-0,61500001;0,162;0,643035
6,749519312;-0,317000002;-0,759000003;-0,059;0,824652052
6,75455251;-0,405000001;-0,833999991;-0,234999999;0,956454906
6,759585741;-0,486000001;-0,99000001;-0,593999982;1,252649991
6,764618972;-0,600000024;-0,893000007;-0,777999997;1,327679568
6,769652217;-0,722000003;-1,031000018;-1,059999943;1,645553074
6,774685524;-0,723999977;-0,916000009;-1,207000017;1,679309687
6,779719015;-0,813000023;-0,842000008;-1,363999963;1,797339409
6,784752246;-0,813000023;-0,810000002;-1,465000033;1,860992783
6,789785496;-0,839999974;-0,779999971;-1,559000015;1,935066138
6,794818804;-0,778999984;-0,56099999;-1,761000037;2,005662757
6,799852011;-0,735000014;-0,583000004;-1,81400001;2,042231638
6,804885472;-0,611000001;-0,469999999;-1,733999968;1,897624011
6,809918717;-0,523000002;-0,330000013;-1,842000008;1,943037066
6,814951948;-0,324000001;-0,31400001;-1,980000019;2,03075653
6,819985189;-0,316000015;-0,165000007;-1,838000059;1,87225138
6,825018496;-0,200000003;-0,037999999;-1,730999947;1,742929952
6,830051717;-0,150999993;-0,022;-1,613000035;1,620201874
6,835085179;-0,085000001;0,118000001;-1,598999977;1,605599554
6,840118405;-0,123000003;0,136000007;-1,406000018;1,41790728
6,845151712;-0,112999998;0,052000001;-1,34800005;1,353727127
6,850184972;-0,068999998;0,044;-1,062999964;1,066145357
6,855218434;-0,133000001;-0,033;-1,00999999;1,019253639
6,860251645;-0,071000002;0,018999999;-0,906000018;0,908976366
6,865284876;-0,150000006;-0,079999998;-0,737999976;0,757326855
6,87031816;-0,151999995;-0,120999999;-0,768999994;0,793162019
6,875351314;-0,126000002;-0,108999997;-0,82099998;0,837733828
6,880384635;-0,093999997;-0,071000002;-0,723999977;0,733520938
6,885417866;-0,225999996;-0,079000004;-0,865999997;0,898483719
6,890451328;-0,277999997;-0,104000002;-0,860000014;0,909780206
6,895484545;-0,409999996;-0,071000002;-0,947000027;1,034383898
6,900517852;-0,379999995;0,035999998;-1,103000045;1,167178262
6,905551064;-0,407999992;0,02;-1,292000055;1,355038057
6,910584526;-0,503000021;-0,052999999;-1,348999977;1,440700857
6,915617828;-0,606999993;-0,035999998;-1,378000021;1,506196883
6,920650982;-0,64200002;0,028999999;-1,351999998;1,496966606
6,925684208;-0,616999984;0,039000001;-1,35800004;1,492103914
6,930717516;-0,628000021;0,068999998;-1,276000023;1,423840259
6,935750727;-0,690999985;0,048999999;-1,095999956;1,296571588
6,940784189;-0,51700002;0,109999999;-0,86500001;1,013712995
6,945817367;-0,465000004;0,120999999;-0,578999996;0,752400823
6,950850674;-0,444999993;0,194000006;-0,556999981;0,738857209
6,955883871;-0,463;0,114;-0,419999987;0,635425046
6,960917333;-0,432000011;0,104999997;-0,38499999;0,588110535
6,965950564;-0,372999996;0,014;-0,310000002;0,48520614
6,970983871;-0,393000007;0,172999993;-0,148000002;0,454182786
6,976017102;-0,263000011;0,172000006;-0,097000003;0,32887993
6,981050299;-0,250999987;0,155000001;-0,072999999;0,303899644
6,98608353;-0,223000005;0,202999994;0,149000004;0,336361414
6,991116986;-0,160999998;0,221000001;0,153999999;0,313812045
6,996150217;-0,105999999;0,277999997;0,39199999;0,492121926
7,001183525;0,032000002;0,291000009;0,522000015;0,598488948
7,006216755;0,116999999;0,377999991;0,600000024;0,718730145
7,011249986;0,096000001;0,291000009;0,777999997;0,836170438
7,016283467;0,054000001;0,349999994;0,688000023;0,773795857
7,021316774;0,02;0,236000001;0,81400001;0,847757051
7,026349996;0,005;0,216000006;0,564999998;0,604901645
7,031383227;-0,178000003;0,133000001;0,497999996;0,545322838
7,036416477;-0,270999998;0,112000003;0,588999987;0,657955913
7,041449938;-0,363999993;0,043000001;0,504999995;0,623995184
7,046483169;-0,442999989;0,044;0,40200001;0,599824139
7,051516477;-0,42899999;0,116999999;0,572000027;0,724509504
7,056549708;-0,405999988;0,093000002;0,808000028;0,909037423
7,061583169;-0,395000011;0,169;0,952000022;1,044456821
7,0666164;-0,333000004;0,150999993;1,220000029;1,273612999
7,071649631;-0,225999996;0,171000004;1,342000008;1,37159798
7,076682862;-0,082999997;0,098999999;1,583999991;1,589259567
7,081716169;-0,218999997;0,160999998;1,789999962;1,810519777
7,0867494;0,018999999;0,238999993;1,991000056;2,005383559
7,091782611;-0,009;0,196999997;2,11500001;2,124173966
7,096816072;-0,002;0,149000004;2,121000051;2,126228167
7,101849327;-0,071000002;0,209000006;1,968000054;1,980339925
7,106882635;-0,125;0,177000001;1,901000023;1,913309982
7,111915866;-0,217999995;0,165999994;1,781999946;1,802943094
7,116949327;-0,252999991;0,097999997;1,541000009;1,564702535
7,121982669;-0,282999992;0,028000001;1,292000055;1,322927488
7,127015823;-0,298000008;-0,029999999;1,335000038;1,368184602
7,132049083;-0,333000004;-0,172000006;1,360000014;1,410699487
7,137082391;-0,342000008;-0,090999998;1,378999949;1,423687418
7,142115867;-0,225999996;-0,245000005;1,504999995;1,541468776
7,147149098;-0,158000007;-0,25999999;1,751000047;1,777235258
7,152182381;0,059;-0,319999993;2,183000088;2,207118116
7,157215689;0,298999995;-0,467000008;2,545000076;2,604710232
7,16224893;0,419999987;-0,559000015;2,938999891;3,021026542
7,167282391;0,612999976;-0,651000023;3,48300004;3,5959504
7,172315626;0,643000007;-0,689999998;3,819999933;3,934710726
7,177348934;0,699000001;-0,853999972;3,940999985;4,092602819
7,182382055;0,68900001;-1,019999981;3,944000006;4,131616756
7,187415362;0,505999982;-1,238999963;3,921999931;4,144060853
7,192448573;0,409999996;-1,20599997;3,605000019;3,82342269
7,197482035;0,316000015;-1,337000012;3,213000059;3,494394715
7,202515362;0,128000006;-1,393000007;2,73300004;3,070199055
7,207548593;0,003;-1,407999992;2,167000055;2,584252739
7,212581824;-0,122000001;-1,473999977;1,514000058;2,116543434
7,217615286;-0,324999988;-1,370000005;0,850000024;1,644696034
7,222648262;-0,344000012;-1,379999995;0,25;1,444034624
7,2276818;-0,42899999;-1,17900002;-0,215000004;1,272912817
7,232715031;-0,518000007;-1,039999962;-0,523999989;1,274558714
7,237748262;-0,522000015;-0,884000003;-0,811999977;1,308924743
7,242781492;-0,578000009;-0,728999972;-1,182999969;1,504996311
7,247814982;-0,372999996;-0,643000007;-1,378999949;1,566594671
7,252848213;-0,354000002;-0,508000016;-1,626000047;1,739901195
7,257881515;-0,280000001;-0,405000001;-1,828999996;1,89411351
7,262914746;-0,197999999;-0,305000007;-1,817000031;1,853029443
7,267948223;0,068000004;-0,202999994;-1,751999974;1,765031702
7,272981454;0,254000008;-0,300999999;-1,743000031;1,786943231
7,278014761;0,412;-0,173999995;-1,481999993;1,548012913
7,283047915;0,568000019;-0,189999998;-1,213999987;1,35370602
7,288081223;0,697000027;-0,243000001;-0,907999992;1,170180338
7,293114459;0,89200002;-0,206;-0,714999974;1,161604493
7,298147689;0,910000026;-0,252000004;-0,467999995;1,05386339
7,30318113;0,99000001;-0,360000014;-0,061000001;1,055187675
7,308214361;0,998000026;-0,476000011;0,294999987;1,144379768
7,313247654;0,88499999;-0,513999999;0,400999993;1,09919151
7,318281116;0,845000029;-0,680000007;0,643000007;1,260902084
7,323314342;0,674000025;-0,703000009;0,822000027;1,274428927
7,328347573;0,574000001;-0,871999979;0,870000005;1,358955471
7,333380895;0,48300001;-0,925000012;0,875999987;1,362457342
7,338414049;0,293000013;-0,995000005;0,782000005;1,298998855
7,343447357;0,231000006;-1,031999946;0,726000011;1,282755201
7,348480798;0,177000001;-1,067000031;0,561999977;1,218877369
7,353514029;0,048;-1,072000027;0,416999996;1,151250213
7,35854726;0,021;-1,087000012;0,004;1,087210204
7,363580583;-0,006;-1,075999975;-0,224999994;1,09928929
7,368614044;0,030999999;-1,059999943;-0,490999997;1,16860681
7,373647275;0,160999998;-0,995999992;-0,537999988;1,143407613
7,378680506;0,263000011;-0,845000029;-0,772000015;1,174384127
7,383713813;0,158000007;-0,727999985;-0,762000024;1,065641599
7,38874701;0,261999995;-0,676999986;-0,898000002;1,154719439
7,393780241;0,209000006;-0,614000022;-0,861999989;1,078759014
7,398813472;0,25;-0,493999988;-0,838999987;1,005214885
7,403846952;0,188999996;-0,47299999;-0,714999974;0,877880944
7,40888026;0,323000014;-0,456;-0,600000024;0,819917702
7,413913496;0,324999988;-0,451000005;-0,616999984;0,830490805
7,418946727;0,237000003;-0,483999997;-0,601999998;0,807978339
7,423980202;0,32100001;-0,694000006;-0,532000005;0,931504707
7,42901351;0,317000002;-0,683000028;-0,584999979;0,953521376
7,434046683;0,273000002;-0,72299999;-0,575999975;0,963864077
7,439079913;0,159999996;-0,769999981;-0,647000015;1,018385481
7,444113448;0,150999993;-0,825999975;-0,894999981;1,227233443
7,449146448;0,136999995;-0,859000027;-0,953999996;1,291032934
7,454179899;0,140000001;-0,759000003;-1,131999969;1,370074792
7,45921313;0,125;-0,731999993;-1,243000031;1,447928888
7,464246448;0,098999999;-0,762000024;-1,371000051;1,571650781
7,469279679;0,209999993;-0,765999973;-1,49000001;1,688477416
7,47431313;0,241999999;-0,708999991;-1,610999942;1,776672677
7,479346361;0,305999994;-0,69599998;-1,694000006;1,856795085
7,484379664;0,363000005;-0,671999991;-1,815999985;1,970078409
7,489412818;0,433999985;-0,546999991;-1,822999954;1,952151073
7,49444614;0,493999988;-0,495999992;-1,842000008;1,970536985
7,499479371;0,647000015;-0,335000008;-1,809000015;1,950208984
7,504512808;0,73299998;-0,25;-1,728000045;1,893613774
7,509546038;0,717999995;-0,226999998;-1,697999954;1,857486699
7,514579269;0,850000024;-0,017000001;-1,572000027;1,787169025
7,519612577;0,910000026;-0,056000002;-1,378999949;1,653141526
7,524645813;0,957000017;0,083999999;-1,143000007;1,493102156
7,529679274;0,913999975;0,182999998;-0,996999979;1,364878717
7,53471251;1,118999958;0,244000003;-0,635999978;1,310035449
7,539745818;1,11500001;0,244000003;-0,497000009;1,244897599
7,544779078;1,159999967;0,194999993;-0,081;1,179061457
7,549812308;1,077000022;0,082000002;-0,004;1,080124552
7,554845558;1,047999978;0,018999999;0,100000001;1,0529316
7,55987902;0,975000024;-0,027000001;0,142000005;0,985656151
7,564912308;0,911000013;-0,158000007;0,07;0,927245936
7,569945539;0,690999985;-0,238999993;0,150999993;0,746594249
7,574979001;0,58099997;-0,272000015;-0,123999998;0,653391899
7,580012231;0,467000008;-0,239999995;-0,208000004;0,564759246
7,585045217;0,414999992;-0,243000001;-0,280000001;0,556483597
7,590078755;0,317999989;-0,206;-0,412;0,559735646
7,595111967;0,252000004;-0,005;-0,331;0,416040866
7,600145198;0,338;0,126000002;-0,298999995;0,468530679
7,605178664;0,472000003;0,224000007;-0,177000001;0,551623972
7,610211895;0,620999992;0,280999988;0,115000002;0,691250305
7,615245112;0,773000002;0,541999996;0,201000005;0,965242975
7,620278419;0,893000007;0,602999985;0,56400001;1,216204755
7,62531165;1,036999941;0,809000015;0,76700002;1,522543573
7,630345083;0,976999998;0,805000007;0,846000016;1,522586626
7,63537839;1,003000021;0,927999973;1,062000036;1,73061754
7,640411563;1;0,838;1,131999969;1,727329711
7,645444794;1,075000048;0,930999994;1,136000037;1,820132461
7,650478117;1,037999988;0,866999984;1,121000051;1,756637146
7,655511578;0,911000013;0,771000028;1,138000011;1,649062186
7,660544819;0,797999978;0,799000025;1,174000025;1,628950909
7,66557805;0,791999996;0,75999999;1,167999983;1,602837465
7,670611358;0,671999991;0,749000013;1,100999951;1,491571621
7,675644588;0,56099999;0,769999981;1,080000043;1,440146191
7,68067805;0,476999998;0,658999979;1,218999982;1,465527525
7,685711281;0,449999988;0,795000017;1,248000026;1,546618596
7,69074462;0,307000011;0,81400001;1,273000002;1,541873545
7,695777851;0,216000006;0,903999984;1,225999951;1,538488822
7,700811078;0,236000001;0,809000015;1,220999956;1,483582798
7,705844309;0,138999999;0,823000014;1,144999981;1,416924479
7,710877761;0,221000001;0,870999992;1,016000032;1,356369438
7,715910992;0,035;0,846000016;1,149999976;1,428089973
7,720944309;0,015;0,925999999;1,148000002;1,474993221
7,72597754;0,003;1,047000051;1,291000009;1,662197079
7,73101101;0,005;1,072999954;1,332000017;1,710432094
7,736044241;-0,104000002;1,036000013;1,363999963;1,715985993
7,741077554;-0,157000005;1,07099998;1,42900002;1,792688209
7,746110784;-0,201000005;0,971000016;1,521999955;1,816514766
7,751144048;-0,153999999;0,816999972;1,61500001;1,816433314
7,756177279;-0,081;0,65200001;1,751000047;1,870204849
7,76121052;-0,082999997;0,51700002;2,032999992;2,099349182
7,766243981;-0,064000003;0,263999999;2,365999937;2,381543135
7,771277318;-0,043000001;0,130999997;2,618000031;2,62162815
7,776310549;0,017000001;-0,090000004;3,023000002;3,024387213
7,781344015;-0,028999999;-0,335000008;3,289999962;3,307138605
7,786377246;-0,081;-0,469999999;3,624000072;3,655247943
7,791410578;-0,195999995;-0,809000015;3,91899991;4,006427002
7,796443732;-0,273999989;-1,047999978;3,986000061;4,130566116
7,80147701;-0,419999987;-1,286000013;4,031000137;4,251959328
7,806510472;-0,632000029;-1,486999989;4,072999954;4,381771517
7,811543482;-0,782999992;-1,741999984;3,732000113;4,192311746
7,816576943;-0,933000028;-1,764999986;3,403000116;3,94539273
7,821610165;-1,07099998;-1,896999955;2,963000059;3,677637712
7,826643473;-1,236999989;-1,88499999;2,470000029;3,344292762
7,831676919;-1,277999997;-1,715000033;1,842000008;2,822671277
7,83671015;-1,345999956;-1,695000052;1,292999983;2,521227878
7,841743391;-1,361999989;-1,447000027;0,861999989;2,166078721
7,846776699;-1,432999969;-1,342000008;0,259000003;1,980286326
7,851809911;-1,373000026;-1,050999999;-0,109999999;1,732579022
7,856843141;-1,29400003;-0,921000004;-0,616999984;1,70392666
7,861876603;-1,327000022;-0,699999988;-0,859000027;1,72881754
7,866909824;-1,225000024;-0,474999994;-1,029999971;1,669475964
7,871943054;-1,161999941;-0,328999996;-1,161999941;1,675926228
7,876976362;-0,994000018;-0,257999986;-1,05400002;1,471569254
7,882009588;-0,897000015;-0,122000001;-1,00999999;1,356315969
7,887043049;-0,818000019;-0,033;-0,866999984;1,192435324
7,892076261;-0,728999972;-0,011;-0,667999983;0,988830591
7,897109569;-0,49000001;-0,018999999;-0,453000009;0,667585214
7,902142809;-0,433999985;-0,014;-0,244000003;0,498084319
7,90717604;-0,354000002;-0,133000001;-0,077;0,385919683
7,912209266;-0,229000002;-0,189999998;0,026000001;0,298692149
7,917242728;-0,138999999;-0,191;0,209000006;0,315409261
7,922275906;0,017000001;-0,344000012;0,388999999;0,519563285
7,927309213;0,064999998;-0,279000014;0,469000012;0,549569849
7,932342405;0,177000001;-0,36500001;0,463;0,615567224
7,937375867;0,264999986;-0,393999994;0,497000009;0,687364529
7,942409078;0,303000003;-0,345999986;0,347000003;0,576137131
7,947442309;0,282999992;-0,490999997;0,344999999;0,663471922
7,952475627;0,252999991;-0,465999991;0,207000002;0,569222266
7,957508858;0,103;-0,508000016;0,119000003;0,531821415
7,962542092;-0,081;-0,584999979;0,068999998;0,594598162
7,967575554;-0,307000011;-0,718999982;-0,057;0,78387434
7,97260878;-0,430999994;-0,83099997;-0,204999998;0,958304203
7,977642088;-0,615999997;-0,884000003;-0,421999991;1,157149945
7,982675318;-0,866999984;-0,976000011;-0,546000004;1,415055122
7,987708776;-0,889999986;-1,128999949;-0,690999985;1,595061703
7,992742007;-1,049000025;-1,245000005;-0,833999991;1,829202572
7,997775314;-1,172999978;-1,309000015;-0,978999972;2,011927169
8,002808458;-1,187000036;-1,300999999;-1,097000003;2,074844353
8,007841766;-1,279999971;-1,347000003;-1,049000025;2,133825201
8,012875021;-1,159000039;-1,368000031;-1,18599999;2,149721179
8,017908482;-1,069000006;-1,218999982;-1,297999978;2,076902961
8,022941713;-1,047999978;-1,106999993;-1,307000041;2,007984573
8,027974982;-0,888999999;-0,916999996;-1,537999988;1,999163313
8,033008212;-0,708999991;-0,875999987;-1,501000047;1,876981115
8,038041674;-0,603999972;-0,575999975;-1,332000017;1,571882942
8,043074896;-0,451999992;-0,500999987;-1,141000032;1,325588946
8,048108127;-0,393999994;-0,333999991;-1,016000032;1,139757893
8,053141439;-0,25;-0,238999993;-0,879999995;0,945526831
8,05817467;-0,216999993;-0,152999997;-0,626999974;0,680901581
8,06320792;-0,090999998;-0,075999998;-0,601999998;0,613564175
8,068241381;-0,104000002;0,037;-0,456;0,469170545
8,073274617;-0,07;0,016000001;-0,349999994;0,357289793
8,078307925;-0,07;-0,035999998;-0,395000011;0,402766692
8,083341122;-0,090999998;-0,101999998;-0,342999995;0,369234337
8,088374583;-0,111000001;-0,114;-0,386999995;0,418432786
8,093407814;-0,209999993;-0,140000001;-0,397000015;0,470434915
8,098441045;-0,151999995;-0,386999995;-0,59799999;0,728338508
8,103474353;-0,27700001;-0,296000004;-0,649999976;0,766058077
8,108507626;-0,370000005;-0,317999989;-0,736999989;0,88385122
8,113541088;-0,284000009;-0,314999998;-0,88499999;0,981379634
8,118574088;-0,393000007;-0,279000014;-0,880999982;1,004216601
8,123607573;-0,393999994;-0,291999996;-1,029999971;1,140789171
8,128640804;-0,381000012;-0,201000005;-1,090999961;1,17296331
8,133674122;-0,456999987;-0,105999999;-1,13499999;1,228132715
8,138707353;-0,432999998;0,02;-1,32099998;1,39029851
8,143740809;-0,476000011;0,071000002;-1,197000027;1,290126379
8,14877404;-0,472000003;0,135000005;-1,246999979;1,340155943
8,153807348;-0,497999996;0,188999996;-1,279999971;1,386407199
8,158840502;-0,490999997;0,172999993;-1,167000055;1,277849413
8,163873843;-0,449000001;0,289999992;-1,207000017;1,320056831
8,168907074;-0,444000006;0,38499999;-1,128000021;1,271906068
8,173940531;-0,442999989;0,409000009;-1,087000012;1,243020122
8,178973761;-0,521000028;0,412999988;-0,921999991;1,136703128
8,184007064;-0,391000003;0,432000011;-0,708999991;0,917706925
8,189040295;-0,398999989;0,360000014;-0,441000015;0,695184878
8,194073732;-0,374000013;0,381999999;-0,223000005;0,579248661
8,199106963;-0,412999988;0,301999986;-0,079999998;0,517854208
8,2041403;-0,345999986;0,261999995;0,088;0,442836299
8,209173531;-0,286000013;0,231999993;0,191;0,414850581
8,214206694;-0,344000012;0,108000003;0,245000005;0,435918583
8,219240001;-0,321999997;0,119999997;0,356999993;0,495512858
8,224273482;-0,256000012;0,104000002;0,425000012;0,506929006
8,229306713;-0,312999994;0,022;0,456;0,55352416
8,234339987;-0,314999998;0,005;0,377000004;0,49130337
8,239373449;-0,407999992;-0,037999999;0,240999997;0,475382995
8,244406449;-0,379999995;-0,101999998;0,172000006;0,429404236
8,24943991;-0,400000006;0,061000001;0,158999994;0,434743606
8,254473246;-0,442000002;0,046999998;0,163000003;0,473436376
8,259506477;-0,340999991;0,079000004;0,211999997;0,409226091
8,264539924;-0,316000015;0,149000004;0,215000004;0,410221906
8,269572924;-0,26699999;0,207000002;0,354999989;0,490064269
8,274606159;-0,246000007;0,238000005;0,453999996;0,568573656
8,279639621;-0,232999995;0,286000013;0,617999971;0,7197284
8,284672928;-0,138999999;0,338999987;0,624000013;0,723614543
8,289706173;-0,151999995;0,224000007;0,64200002;0,696738134
8,294739635;-0,181999996;0,180999994;0,720000029;0,764385399
8,299772866;-0,172999993;0,155000001;0,712000012;0,748931249
8,304806173;-0,209999993;0,119999997;0,779999971;0,816639426
8,309839327;-0,136000007;0,085000001;0,874000013;0,888592721
8,314872612;-0,120999999;0,129999995;0,911000013;0,928149785
8,319906073;-0,027000001;0,123000003;1,072999954;1,080364245
8,324939327;-0,012;0,089000002;1,261999965;1,265191255
8,329972558;0,090999998;0,120999999;1,458999991;1,466834338
8,335005752;-0,009;0,144999996;1,639000058;1,645426142
8,340039059;0,001;0,071000002;1,710999966;1,712472739
8,345072304;-0,130999997;0,067000002;1,812999964;1,818960931
8,350105766;-0,147;-0,006;1,646000028;1,652561978
8,355139078;-0,155000001;-0,026000001;1,552999973;1,560932387
8,360172309;-0,284999996;-0,133000001;1,279999971;1,318072049
8,365205463;-0,442000002;-0,157000005;1,111999989;1,206879024
8,370238776;-0,437000006;-0,079000004;0,862999976;0,970556008
8,375272237;-0,386999995;-0,056000002;0,656000018;0,76370218
8,380305453;-0,39199999;0,063000001;0,629999995;0,744669716
8,385338761;-0,231999993;0,142000005;0,609000027;0,666985031
8,390371906;-0,159999996;0,273999989;0,617999971;0,694694146
8,395405213;-0,057;0,379000008;0,490999997;0,622873184
8,400438675;0,187999994;0,476999998;0,541999996;0,746081089
8,405471896;0,324000001;0,542999983;0,488999993;0,799340963
8,410505203;0,587000012;0,573000014;0,672999978;1,061049952
8,415538689;0,73299998;0,671000004;0,867999971;1,319452131
8,420571689;0,907000005;0,677999973;1,101999998;1,580106632
8,425604905;1,003000021;0,638999999;1,394999981;1,833127106
8,430638366;1,00999999;0,635999978;1,557999969;1,962641041
8,43567167;1,138000011;0,503000021;1,955000043;2,317342921
8,440704901;1,131999969;0,490999997;2,13499999;2,465913601
8,445738386;1,146999955;0,263999999;2,328999996;2,609510659
8,450771617;1,146000028;0,156000003;2,440999985;2,7011355
8,455804862;1,05400002;-0,001;2,438999891;2,656997838
8,46083817;0,91900003;-0,194999993;2,523999929;2,693169452
8,465871381;0,859000027;-0,342999995;2,470999956;2,638440984
8,470904843;0,609000027;-0,523000002;2,398999929;2,529745184
8,475938069;0,476999998;-0,769999981;2,08100009;2,269579331
8,4809713;0,123000003;-0,860000014;1,847000003;2,041111961
8,486004535;-0,005;-0,958999991;1,49000001;1,771949777
8,491037843;-0,291000009;-1,011999965;1,213000059;1,606298253
8,49607104;-0,476000011;-1,067000031;0,885999978;1,466308643
8,501104501;-0,61500001;-0,949999988;0,722000003;1,342389285
8,506137732;-0,662999988;-0,980000019;0,566999972;1,31204344
8,51117104;-0,847000003;-0,944000006;0,254999995;1,293665341
8,516204271;-0,806999981;-0,949999988;-0,030999999;1,246880085
8,521237516;-0,843999982;-0,943000019;-0,279000014;1,2959267
8,526270747;-0,712000012;-0,952000022;-0,446999997;1,270061832
8,531304209;-0,707000017;-0,939999998;-0,537999988;1,293403652
8,536337449;-0,467000008;-0,874000013;-0,65200001;1,186199411
8,541370679;-0,397000015;-0,815999985;-0,74000001;1,170924849
8,546403987;-0,144999996;-0,65200001;-0,717000008;0,97990715
8,551437435;0,023;-0,675000012;-0,611000001;0,910755191
8,556470665;0,257999986;-0,563000023;-0,44600001;0,763183483
8,561503973;0,391000003;-0,483999997;-0,319999993;0,699669204
8,566537204;0,662;-0,453000009;-0,103;0,808741002
8,571570435;0,712000012;-0,370999992;0,079999998;0,806836422
8,576603665;0,924000025;-0,277999997;0,225999996;0,991027771
8,581637122;0,981999993;-0,300999999;0,351999998;1,085738912
8,586670353;0,986999989;-0,224999994;0,345999986;1,069817725
8,591703569;0,984000027;-0,250999987;0,542999983;1,151566771
8,596736876;0,884000003;-0,298999995;0,54400003;1,080181945
8,601770334;0,966000021;-0,247999996;0,643000007;1,186637706
8,606803565;0,790000021;-0,423999995;0,451999992;1,004081681
8,611836795;0,723999977;-0,400000006;0,460000008;0,946454425
8,616870103;0,574000001;-0,541999996;0,305999994;0,846685297
8,621903319;0,481999993;-0,578000009;0,201000005;0,778979464
8,62693678;0,247999996;-0,634000003;0,052999999;0,682838928
8,631969766;0,164000005;-0,660000026;-0,184;0,704522559
8,637003228;0,131999999;-0,67900002;-0,467000008;0,834598127
8,642036536;0,02;-0,720000029;-0,515999973;0,886033867
8,64706978;-0,064000003;-0,677999973;-0,691999972;0,970898514
8,652103242;-0,009;-0,568000019;-0,903999984;1,067670826
8,657136473;-0,068000004;-0,583000004;-0,935000002;1,103964678
8,662169785;0,061999999;-0,442999989;-1,075000048;1,164353079
8,667203016;0,142000005;-0,421999991;-0,963;1,060950985
8,672236266;0,163000003;-0,312000006;-1,093000054;1,148286603
8,677269497;0,247999996;-0,206;-1,159000039;1,203005024
8,682302958;0,437000006;-0,240999997;-0,838999987;0,976202326
8,687336203;0,453999996;-0,250999987;-0,935000002;1,069271712
8,692369434;0,623000026;-0,086999997;-0,709999979;0,948576829
8,697402762;0,686999977;-0,085000001;-0,643999994;0,945478694
8,702435992;0,652999997;-0,071000002;-0,500999987;0,826105916
8,707469425;0,718999982;-0,056000002;-0,474000007;0,863002306
8,712502656;0,674000025;-0,131999999;-0,444000006;0,817823965
8,717535963;0,791999996;-0,191;-0,42899999;0,920752944
8,722569203;0,768999994;-0,213;-0,521000028;0,952980073
8,727602434;0,680000007;-0,225999996;-0,57099998;0,916251595
8,732635703;0,730000019;-0,165999994;-0,589999974;0,953182037
8,737669164;0,579999983;-0,207000002;-0,792999983;1,004040813
8,742702395;0,638000011;-0,219999999;-0,985000014;1,194013837
8,747735717;0,479000002;-0,185000002;-1,031000018;1,151792968
8,752768948;0,467999995;-0,111000001;-1,190000057;1,283528391
8,757802409;0,340000004;-0,016000001;-1,241999984;1,287796553
8,76283564;0,294999987;-0,023;-1,409000039;1,439734386
8,767868895;0,421000004;-0,059999999;-1,639000058;1,693269675
8,772902202;0,345999986;0,074000001;-1,59800005;1,636702829
8,777935664;0,291000009;0,112000003;-1,822999954;1,849473936
8,782968664;0,388000011;0,172000006;-1,797000051;1,846439057
8,788002126;0,363999993;0,181999996;-1,784000039;1,829829537
8,793035366;0,442999989;0,228;-1,621000051;1,695840251
8,798068674;0,414000005;0,119000003;-1,565999985;1,624165311
8,80310189;0,421000004;0,166999996;-1,366000056;1,439126873
8,808135351;0,405000001;0,149000004;-1,133000016;1,212400527
8,813168573;0,523000002;0,068999998;-0,994000018;1,125311529
8,818201881;0,588999987;0,083999999;-0,703999996;0,921733681
8,823235087;0,606000006;0,055;-0,463999987;0,765216959
8,828268317;0,68599999;0,006;-0,282000005;0,741725009
8,833301761;0,663999975;-0,064000003;0,003;0,667083928
8,838334992;0,660000026;-0,021;0,148000002;0,676716362
8,843368233;0,598999977;-0,068000004;0,214000002;0,639703817
8,84840154;0,391000003;-0,066;0,219999999;0,453472162
8,853434761;0,305999994;-0,097000003;0,171000004;0,363711422
8,858468223;0,222000003;-0,034000002;0,104000002;0,247499499
8,863501453;0,079999998;-0,035999998;-0,037999999;0,095603345
8,868534761;0,044;0,037;-0,170000002;0,179457518
8,873568002;-0,083999999;0,063000001;-0,307999998;0,325405899
8,878601463;-0,079000004;0,143000007;-0,333000004;0,37091644
8,883634463;-0,097000003;0,148000002;-0,433999985;0,468688584
8,888667925;0,001;0,215000004;-0,374000013;0,431395423
8,893701151;0,001;0,289999992;-0,432999998;0,521142969
8,898734381;0,090999998;0,291000009;-0,268000007;0,405938429
8,90376767;0,194999993;0,317000002;-0,122000001;0,391660566
8,908800901;0,337000012;0,423000008;0,134000003;0,557184005
8,913834344;0,514999986;0,476999998;0,414999992;0,815462431
8,918867574;0,621999979;0,467999995;0,643999994;1,010269252
8,923900882;0,776000023;0,54400003;0,926999986;1,325685122
8,928934113;0,851999998;0,647000015;1,144999981;1,567015626
8,933967574;1,057999969;0,66900003;1,355999947;1,845443261
8,939000766;1,026000023;0,718999982;1,539999962;1,985254871
8,944033997;0,989000022;0,768999994;1,876999974;2,256681399
8,949067233;0,912999988;0,825999975;2,022000074;2,367346455
8,95410054;0,75;0,836000025;2,078999996;2,362972075
8,959133997;0,697000027;0,89200002;2,042000055;2,334788491
8,964167228;0,568000019;0,811999977;1,853999972;2,102209286
8,96920055;0,444000006;0,663999975;1,720999956;1,897333081
8,974233781;0,337000012;0,648999989;1,449000001;1,623074551
8,979267031;0,191;0,555999994;1,149999976;1,291556015
8,984300493;0,108999997;0,595000029;1,054999948;1,216113039
8,989333742;-0,014;0,579999983;1,088000059;1,233020725
8,994366973;-0,096000001;0,755999982;0,81099999;1,112866999
8,999400271;-0,294999987;0,745000005;0,883000016;1,192366985
9,004433502;-0,291999996;0,694000006;0,883000016;1,160426229
9,009466708;-0,331999987;0,638000011;1,027999997;1,254612291
9,01450017;-0,34799999;0,697000027;1,008999944;1,274752492
9,019533406;-0,201000005;0,578999996;1,146000028;1,299599192
9,024566713;-0,275000006;0,535000026;1,406000018;1,529276326
9,029600175;-0,165000007;0,324000001;1,75;1,787372654
9,034633175;-0,134000003;0,179000005;2,019999981;2,032337798
9,039666401;-0,023;-0,028000001;2,34800005;2,348279633
9,044699939;-0,109999999;-0,233999997;2,717999935;2,730270984
9,049733077;-0,057;-0,404000014;2,953000069;2,981052569
9,054766385;-0,086000003;-0,549000025;3,22300005;3,27055444
9,059799626;-0,101999998;-0,736999989;3,385999918;3,466780701
9,064833087;-0,158999994;-0,712000012;3,414000034;3,491077377
9,069866313;-0,155000001;-0,800000012;3,621000051;3,711558486
9,074899621;-0,26699999;-0,966000021;3,575999975;3,713787939
9,079932866;-0,405999988;-0,999000013;3,263000011;3,436568942
9,084966328;-0,462000012;-1,05400002;2,930999994;3,148828516
9,089999308;-0,486999989;-0,930999994;2,414999962;2,633658063
9,095032769;-0,54400003;-0,855000019;1,828999996;2,090981122
9,100066015;-0,559000015;-0,726999998;1,312000036;1,60073549
9,105099323;-0,635999978;-0,546999991;0,83099997;1,180790376
9,110132558;-0,617999971;-0,363999993;0,316000015;0,783757595
9,115166019;-0,550999999;-0,179000005;0,014;0,579515315
9,12019925;-0,523999989;-0,104999997;-0,316000015;0,620851832
9,125232578;-0,492000014;0,082999997;-0,574000001;0,760545208
9,130265809;-0,372999996;0,172000006;-0,783999979;0,885081333
9,135299034;-0,256999999;0,203999996;-0,809000015;0,87300975
9,140332496;-0,307999998;0,175999999;-0,774999976;0,852329139
9,145365727;-0,231999993;0,089000002;-0,739000022;0,779657637
9,150398957;-0,052000001;0,141000003;-0,592999995;0,611746675
9,155432183;-0,034000002;0,037999999;-0,428000003;0,431026684
9,160465491;-0,082000002;-0,128999993;-0,26699999;0,307658891
9,165498948;-0,059;-0,158000007;-0,114;0,203570632
9,170532178;-0,170000002;-0,221000001;0,016000001;0,279279432
9,175565496;-0,218999997;-0,425999999;-0,012;0,479146113
9,180598958;-0,270000011;-0,486999989;0,072999999;0,561603058
9,185631953;-0,324999988;-0,671000004;-0,029999999;0,74616754
9,190665414;-0,474999994;-0,741999984;-0,104999997;0,887250793
9,195698645;-0,564999998;-0,873000026;-0,232999995;1,065665539
9,200731876;-0,693000019;-0,921000004;-0,409000009;1,223017187
9,205765183;-0,773000002;-1,047000051;-0,563000023;1,417994053
9,210798385;-0,924000025;-1,090999961;-0,712000012;1,59718533
9,215831616;-0,98299998;-1,052999973;-0,796000004;1,645817095
9,220865107;-1,126999974;-1,034999967;-0,921000004;1,785943694
9,225898415;-1,113000035;-1,093000054;-0,936999977;1,819721724
9,230931598;-1,245000005;-1,149999976;-0,939999998;1,938072484
9,23596506;-1,286999941;-1,190000057;-0,961000025;1,998997257
9,240998045;-1,284999967;-1,108999968;-0,93599999;1,938350284
9,246031506;-1,299000025;-1,105000019;-0,987999976;1,970931267
9,251064728;-1,253999949;-1,085999966;-0,913999975;1,894018941
9,256098036;-1,217000008;-1,09800005;-0,926999986;1,883088448
9,261131294;-1,17900002;-1,111999989;-0,84799999;1,829122469
9,266164525;-1,161000013;-1,123999953;-0,875;1,837640315
9,271197997;-1,194000006;-0,981999993;-0,870000005;1,773939122
9,276231304;-1,161999941;-0,893999994;-0,856999993;1,698213426
9,28126453;-1,146999955;-0,912999988;-0,842000008;1,690604001
9,286297761;-1,06099999;-0,809000015;-0,805999994;1,558793762
9,291331217;-0,958999991;-0,726000011;-0,745999992;1,415370265
9,296364525;-0,917999983;-0,68599999;-0,535000026;1,26473119
9,301397703;-0,726000011;-0,546000004;-0,483999997;1,029294913
9,306430934;-0,819999993;-0,542999983;-0,273999989;1,020943174
9,311464242;-0,703999996;-0,5;-0,093999997;0,868591961
9,316497472;-0,722000003;-0,483999997;-0,02;0,869448102
9,321530958;-0,621999979;-0,486999989;0,015;0,790112627
9,326564266;-0,699000001;-0,514999986;0,050999999;0,869728111
9,33159752;-0,824999988;-0,513999999;0,097999997;0,976946763
9,336630751;-0,782999992;-0,501999974;0,057999998;0,931910383
9,341664233;-0,836000025;-0,479999989;-0,032000002;0,964530991
9,346697463;-0,853999972;-0,508000016;0,007;0,993694606
9,351730775;-0,86500001;-0,423999995;-0,039999999;0,964158188
9,356764006;-0,763000011;-0,463;-0,094999999;0,897531624
9,361797208;-0,836000025;-0,370000005;-0,153999999;0,927098725
9,366830439;-0,816999972;-0,372999996;-0,268999994;0,937538771
9,37186392;-0,779999971;-0,423999995;-0,277999997;0,930300999
9,376897151;-0,805000007;-0,338;-0,300000012;0,923184174
9,381930459;-0,686999977;-0,266000003;-0,456;0,866406931
9,386963885;-0,686999977;-0,287;-0,485000014;0,888573566
9,391997116;-0,703000009;-0,228;-0,510999978;0,898506533
9,397030135;-0,68900001;-0,157000005;-0,518999994;0,876773066
9,402063596;-0,555999994;-0,089000002;-0,519999981;0,766457418
9,407096919;-0,609000027;-0,111000001;-0,537999988;0,820149999
9,41213015;-0,592999995;-0,057;-0,441000015;0,741201057
9,417163381;-0,615999997;-0,017000001;-0,412999988;0,741831508
9,422196818;-0,60799998;0,012;-0,289000005;0,673297096
9,427230049;-0,515999973;0,02;-0,169;0,543338727
9,432263352;-0,495000005;0,052999999;-0,071000002;0,502866787
9,437296583;-0,477999985;0,061999999;0,082000002;0,488929429
9,442330005;-0,546999991;0,041999999;-0,016000001;0,54884332
9,447363236;-0,546000004;0,017000001;0,037;0,547516214
9,452396448;-0,632000029;0,022;-0,136000007;0,646841587
9,457429755;-0,783999979;0,02;-0,142000005;0,797006881
9,462462986;-0,805000007;-0,025;-0,229000002;0,837311777
9,467496217;-0,773000002;-0,002;-0,282000005;0,822834738
9,472529625;-0,791999996;0,028999999;-0,479000002;0,926037794
9,477562933;-0,851999998;0,025;-0,592999995;1,0383535
9,482596164;-0,898000002;0,017999999;-0,665000021;1,117565672
9,487629395;-0,856000006;0,008;-0,632000029;1,064060171
9,492662612;-0,727999985;0,166999996;-0,51700002;0,908384278
9,497696073;-0,846000016;0,143000007;-0,384000003;0,940011187
9,502729361;-0,744000018;0,300000012;-0,321999997;0,864418898
9,507762515;-0,753000021;0,370000005;-0,171000004;0,85624181
9,512795731;-0,651000023;0,31400001;-0,045000002;0,724169895
9,517829039;-0,569999993;0,449999988;0,180000007;0,748197824
9,522862501;-0,538999975;0,584999979;0,211999997;0,823219258
9,527895731;-0,533999979;0,528999984;0,079000004;0,755802859
9,532929068;-0,558000028;0,560000002;0,064000003;0,79313305
9,537962299;-0,524999976;0,503000021;-0,041999999;0,728284282
9,542995769;-0,437000006;0,731000006;-0,037999999;0,852510419
9,548028769;-0,360000014;0,735000014;0,048;0,819834759
9,553062217;-0,237000003;0,796999991;0,167999998;0,848293573
9,558095525;-0,114;0,837000012;0,296999991;0,895418347
9,563128756;0,056000002;0,930999994;0,824999988;1,24519957
9,568162005;0,148000002;0,870999992;1,141000032;1,44306135
9,573195467;0,291000009;0,845000029;1,541000009;1,781400314
9,578228698;0,441000015;0,791000009;2,048000097;2,239300432
9,583262;0,379000008;0,759000003;2,430000067;2,57383417
9,588295231;0,340000004;0,614000022;2,546999931;2,641931998
9,593328698;0,213;0,389999986;2,75;2,785672089
9,598361928;0,055;0,337000012;2,726999998;2,748294562
9,603394909;0,007;0,303000003;2,59100008;2,608666214
9,608428371;-0,153999999;0,107000001;2,329999924;2,337533881
9,613461703;-0,150000006;-0,015;2,068000078;2,073487238
9,618494934;-0,191;-0,128000006;1,569000006;1,585757238
9,623528429;-0,180000007;-0,266000003;1,279999971;1,319680238
9,62856166;-0,159999996;-0,254999995;0,992999971;1,037628999
9,633594963;-0,097999997;-0,131999999;0,745999992;0,763900509
9,638628193;-0,185000002;-0,193000004;0,486999989;0,55555647
9,643661424;-0,120999999;-0,086999997;0,453000009;0,47688469
9,648694934;-0,089000002;-0,044;0,275999993;0,293313819
9,653728241;0,159999996;0,014;0,354999989;0,389642132
9,658761472;0,430999994;0,093000002;0,374000013;0,578174718
9,663794684;0,697000027;0,07;0,451999992;0,833674415
9,668827915;0,948000014;0,105999999;0,684000015;1,173795573
9,673861145;1,126999974;0,035999998;0,86500001;1,421143891
9,678894559;1,238000035;-0,046999998;1,100999951;1,657423899
9,683927867;1,291000009;-0,130999997;1,180999994;1,754594827
9,688961097;1,309000015;-0,133000001;1,36500001;1,895888991
9,693994558;1,31099999;-0,314999998;1,398000002;1,942253839
9,699027785;1,254999995;-0,370999992;1,375;1,898233648
9,704061016;1,177999973;-0,474999994;1,416000009;1,90220003
9,709094332;0,970000029;-0,652999997;1,330000043;1,770934546
9,714127563;0,757000029;-0,708999991;1,14199996;1,542690488
9,719160794;0,611000001;-0,763999999;0,896000028;1,326586993
9,724194255;0,400999993;-0,913999975;0,722000003;1,231860768
9,729227496;0,370999992;-0,958000004;0,52700001;1,154614227
9,734260727;0,31099999;-1,069000006;0,358999997;1,169770492
9,739294049;0,279000014;-1,027999997;0,134000003;1,073583254
9,74432751;0,162;-1,110000014;0,136000007;1,129973466
9,749360707;0,092;-1,123999953;0,052999999;1,129003496
9,754394015;-0,008;-1,161000013;-0,017000001;1,161152028
9,75942716;-0,090999998;-1,087000012;-0,021;1,091004595
9,764460467;-0,026000001;-1,067999959;-0,075000003;1,070945803
9,769493717;-0,025;-1,02699995;0;1,02730419
9,774526948;-0,075999998;-0,939999998;0,048;0,944288089
9,779560419;0,005;-0,912999988;-0,046999998;0,914222608
9,78459365;-0,082000002;-0,84799999;0,067000002;0,854585855
9,789626967;-0,081;-0,906000018;0,002;0,909615871
9,794660428;-0,064999998;-0,84799999;0,059;0,852531514
9,799693616;-0,029999999;-0,845000029;0,151999995;0,85908617
9,804726847;-0,046999998;-0,799000025;0,225999996;0,831676643
9,809760174;0,035;-0,864000022;0,39199999;0,949412993
9,814793405;0,068999998;-0,850000024;0,481000006;0,979092461
9,819826611;0,179000005;-0,791999996;0,694999993;1,068798384
9,824859842;0,226999998;-0,819000006;0,824000001;1,183750823
9,829893323;0,298999995;-0,810000002;1,080000043;1,382715117
9,834926553;0,289999992;-0,848999977;1,139999986;1,45068981
9,839959861;0,324999988;-0,816999972;1,187999964;1,477991157
9,844993362;0,158999994;-0,818000019;1,363000035;1,597552542
9,850026592;0,136999995;-0,949000001;1,289000034;1,6065152
9,855059823;0,182999998;-0,927999973;1,215999961;1,540561214
9,860093131;0,164000005;-0,977999985;1,154999971;1,522302502
9,865126366;0,130999997;-0,944000006;0,95599997;1,34990109
9,870159596;0,194000006;-0,989000022;0,665000021;1,207469285
9,875193063;0,233999997;-0,971000016;0,463;1,100893287
9,880226294;0,291999996;-0,77700001;0,211999997;0,856701238
9,88525953;0,391000003;-0,704999983;0,043000001;0,807313433
9,890292837;0,474999994;-0,545000017;-0,206;0,751722031
9,895326087;0,467999995;-0,497999996;-0,331;0,759334571
9,900359549;0,446999997;-0,356999993;-0,528999984;0,779165564
9,905392856;0,323000014;-0,398000002;-0,602999985;0,791417711
9,91042603;0,296999991;-0,32100001;-0,670000017;0,800093759
9,915459261;0,273000002;-0,331;-0,897000015;0,994333459
9,920492823;0,130999997;-0,356000006;-1,065999985;1,131482643
9,925525823;0,078000002;-0,349999994;-1,008000016;1,06988225
9,930559318;-0,024;-0,363000005;-1,090999961;1,150054746
9,935592549;-0,046999998;-0,386000007;-0,99000001;1,063628236
9,940625862;-0,013;-0,425999999;-0,986999989;1,075087893
9,945659092;-0,017000001;-0,504000008;-0,992999971;1,11371179
9,950692563;0,007;-0,474999994;-0,977999985;1,08727088
9,955725794;0,225999996;-0,614000022;-0,811999977;1,042792399
9,960759101;0,109999999;-0,578000009;-0,698000014;0,912900887
9,965792255;0,187000006;-0,63499999;-0,663999975;0,937597972
9,970825573;0,136999995;-0,587000012;-0,541000009;0,809950012
9,975858804;0,216000006;-0,559000015;-0,575999975;0,831211761
9,980892236;0,163000003;-0,550999999;-0,560000002;0,802352792
9,985925467;0,241999999;-0,56400001;-0,455000013;0,763992816
9,990958762;0,157000005;-0,377000004;-0,589999974;0,71754998
9,995991992;0,293000013;-0,36500001;-0,601999998;0,762547056
10,00102545;0,246000007;-0,330000013;-0,753000021;0,85815211
10,00605868;0,243000001;-0,349000007;-0,772000015;0,881381885
10,01109192;0,284999996;-0,287;-0,971000016;1,051872154
